Timestamp,accelX,accelY,accelZ,gyroX(rad/s),gyroY(rad/s),gyroZ(rad/s),Roll(rads),Pitch(rads),Yaw(rads)
09-Sep-2020 10:52:39.885,-0.0569,-0.4310,-0.8297,-0.1217, 0.6912, 0.9586,-0.0763, 0.3966, 1.2507
09-Sep-2020 10:52:39.895,-0.0489,-0.4544,-0.8817,-0.0300, 0.7911, 0.9667,-0.0734, 0.3948, 1.2610
09-Sep-2020 10:52:39.905,-0.0547,-0.4666,-0.9536, 0.1146, 0.8335, 0.9854,-0.0696, 0.3939, 1.2715
09-Sep-2020 10:52:39.914,-0.0679,-0.4715,-0.9891, 0.2326, 0.8014, 1.0050,-0.0655, 0.3943, 1.2822
09-Sep-2020 10:52:39.925,-0.0735,-0.4868,-1.0116, 0.3160, 0.6059, 1.0180,-0.0619, 0.3960, 1.2933
09-Sep-2020 10:52:39.934,-0.0851,-0.4880,-1.0539, 0.3978, 0.3277, 1.0172,-0.0603, 0.3986, 1.3045
09-Sep-2020 10:52:39.945,-0.1139,-0.4673,-1.0774, 0.4672, 0.0641, 0.9882,-0.0614, 0.4019, 1.3158
09-Sep-2020 10:52:39.954,-0.1339,-0.4448,-1.0822, 0.5773,-0.3307, 0.9227,-0.0653, 0.4060, 1.3269
09-Sep-2020 10:52:39.964,-0.1237,-0.4352,-1.0753, 0.6135,-0.4917, 0.8486,-0.0725, 0.4111, 1.3373
09-Sep-2020 10:52:39.974,-0.0903,-0.4282,-1.0022, 0.5712,-0.2236, 0.7859,-0.0810, 0.4165, 1.3472
09-Sep-2020 10:52:39.984,-0.0616,-0.4204,-0.9950, 0.4040, 0.0563, 0.8251,-0.0871, 0.4215, 1.3564
09-Sep-2020 10:52:39.994,-0.0062,-0.4128,-1.0011, 0.1602, 0.2169, 0.9836,-0.0905, 0.4247, 1.3659
09-Sep-2020 10:52:40.004, 0.0633,-0.4121,-0.9682,-0.1086, 0.2154, 1.1275,-0.0929, 0.4254, 1.3768
09-Sep-2020 10:52:40.014, 0.0706,-0.3630,-0.9675,-0.3442, 0.0254, 1.2403,-0.0960, 0.4233, 1.3891
09-Sep-2020 10:52:40.024, 0.0522,-0.3199,-1.0009,-0.5116,-0.2779, 1.3354,-0.1012, 0.4187, 1.4022
09-Sep-2020 10:52:40.034, 0.0262,-0.2945,-1.0328,-0.6104,-0.5015, 1.4305,-0.1095, 0.4123, 1.4162
09-Sep-2020 10:52:40.044, 0.0128,-0.3079,-1.0367,-0.6504,-0.6361, 1.5241,-0.1203, 0.4047, 1.4309
09-Sep-2020 10:52:40.054,-0.0458,-0.3172,-1.0466,-0.5975,-0.7263, 1.5249,-0.1327, 0.3965, 1.4464
09-Sep-2020 10:52:40.064,-0.1659,-0.2787,-1.0429,-0.4448,-0.9997, 1.3692,-0.1459, 0.3886, 1.4618
09-Sep-2020 10:52:40.074,-0.2908,-0.2425,-1.0400,-0.2230,-1.4926, 1.0736,-0.1611, 0.3822, 1.4756
09-Sep-2020 10:52:40.084,-0.2888,-0.2549,-1.1196, 0.0245,-1.7143, 0.7880,-0.1799, 0.3782, 1.4866
09-Sep-2020 10:52:40.094,-0.2339,-0.2635,-1.0609, 0.1352,-0.8087, 0.6420,-0.1993, 0.3769, 1.4951
09-Sep-2020 10:52:40.104,-0.1600,-0.2134,-0.9563, 0.1925, 0.1307, 0.6286,-0.2100, 0.3769, 1.5023
09-Sep-2020 10:52:40.114,-0.1297,-0.2021,-0.9743, 0.1123, 0.0848, 0.4704,-0.2119, 0.3774, 1.5093
09-Sep-2020 10:52:40.124,-0.1190,-0.2828,-0.8855,-0.0171, 0.0689, 0.3044,-0.2129, 0.3775, 1.5146
09-Sep-2020 10:52:40.134,-0.0482,-0.3468,-0.7814,-0.2433, 0.1121, 0.2526,-0.2134, 0.3766, 1.5179
09-Sep-2020 10:52:40.144, 0.0244,-0.3483,-0.8055,-0.5094, 0.1128, 0.2470,-0.2131, 0.3737, 1.5201
09-Sep-2020 10:52:40.154, 0.0849,-0.3125,-0.8550,-0.7519, 0.1478, 0.3227,-0.2125, 0.3682, 1.5216
09-Sep-2020 10:52:40.163, 0.1236,-0.2706,-0.9270,-0.8550, 0.1930, 0.5067,-0.2117, 0.3603, 1.5235
09-Sep-2020 10:52:40.173, 0.1429,-0.2566,-1.0534,-0.7365, 0.1583, 0.7093,-0.2111, 0.3511, 1.5270
09-Sep-2020 10:52:40.184, 0.1480,-0.2536,-1.1535,-0.4544, 0.0402, 0.8538,-0.2115, 0.3426, 1.5327
09-Sep-2020 10:52:40.193, 0.1309,-0.2635,-1.1638,-0.1408,-0.1388, 0.9310,-0.2138, 0.3364, 1.5406
09-Sep-2020 10:52:40.204, 0.1021,-0.3027,-1.1242, 0.1347,-0.4257, 0.9942,-0.2183, 0.3330, 1.5499
09-Sep-2020 10:52:40.213, 0.0711,-0.3163,-1.1003, 0.4315,-0.8508, 1.1095,-0.2261, 0.3322, 1.5606
09-Sep-2020 10:52:40.223, 0.0539,-0.2902,-1.0604, 0.6879,-1.1612, 1.2362,-0.2386, 0.3338, 1.5730
09-Sep-2020 10:52:40.233, 0.0101,-0.2574,-0.9905, 0.8779,-1.1683, 1.3318,-0.2547, 0.3374, 1.5875
09-Sep-2020 10:52:40.243,-0.0556,-0.2339,-0.9197, 1.0017,-0.8754, 1.3912,-0.2714, 0.3424, 1.6035
09-Sep-2020 10:52:40.253,-0.1248,-0.2226,-0.8783, 1.0359,-0.5610, 1.4013,-0.2859, 0.3481, 1.6206
09-Sep-2020 10:52:40.263,-0.1822,-0.2194,-0.8503, 0.9735,-0.3542, 1.3631,-0.2976, 0.3540, 1.6380
09-Sep-2020 10:52:40.273,-0.1998,-0.2300,-0.7955, 0.8594,-0.2308, 1.3169,-0.3070, 0.3591, 1.6549
09-Sep-2020 10:52:40.283,-0.1763,-0.2554,-0.7220, 0.7567,-0.0927, 1.3307,-0.3151, 0.3633, 1.6712
09-Sep-2020 10:52:40.294,-0.1365,-0.2738,-0.6831, 0.6893, 0.1331, 1.4033,-0.3217, 0.3663, 1.6873
09-Sep-2020 10:52:40.303,-0.1355,-0.2656,-0.7090, 0.6097, 0.4370, 1.4951,-0.3263, 0.3683, 1.7039
09-Sep-2020 10:52:40.313,-0.1618,-0.2662,-0.7780, 0.5270, 0.7959, 1.6025,-0.3281, 0.3692, 1.7212
09-Sep-2020 10:52:40.323,-0.2173,-0.2690,-0.8344, 0.4491, 1.1905, 1.6978,-0.3267, 0.3691, 1.7393
09-Sep-2020 10:52:40.333,-0.2649,-0.2570,-0.8719, 0.4072, 1.5182, 1.7911,-0.3216, 0.3680, 1.7581
09-Sep-2020 10:52:40.343,-0.2693,-0.2273,-0.9047, 0.4476, 1.7051, 1.8305,-0.3137, 0.3663, 1.7776
09-Sep-2020 10:52:40.353,-0.2412,-0.1979,-0.9177, 0.5567, 1.7916, 1.8510,-0.3039, 0.3650, 1.7978
09-Sep-2020 10:52:40.363,-0.1840,-0.1817,-0.9138, 0.6603, 1.7954, 1.8905,-0.2935, 0.3649, 1.8184
09-Sep-2020 10:52:40.373,-0.1042,-0.1752,-0.9117, 0.6841, 1.7007, 1.9850,-0.2834, 0.3658, 1.8399
09-Sep-2020 10:52:40.383,-0.0105,-0.1884,-0.9353, 0.6269, 1.4366, 2.1199,-0.2746, 0.3669, 1.8623
09-Sep-2020 10:52:40.392, 0.0476,-0.1761,-0.9769, 0.5351, 1.1710, 2.2743,-0.2688, 0.3672, 1.8860
09-Sep-2020 10:52:40.402, 0.0487,-0.1308,-0.9512, 0.5406, 1.0155, 2.3694,-0.2660, 0.3665, 1.9109
09-Sep-2020 10:52:40.412,-0.0447,-0.0435,-0.9576, 0.5545, 0.6817, 2.3910,-0.2653, 0.3655, 1.9368
09-Sep-2020 10:52:40.422,-0.1634, 0.0366,-1.0015, 0.5720, 0.3733, 2.4098,-0.2679, 0.3646, 1.9630
09-Sep-2020 10:52:40.432,-0.2263, 0.0565,-1.0172, 0.5555, 0.1077, 2.4427,-0.2735, 0.3636, 1.9895
09-Sep-2020 10:52:40.442,-0.2458, 0.0399,-1.0258, 0.4738,-0.1503, 2.4826,-0.2819, 0.3622, 2.0162
09-Sep-2020 10:52:40.452,-0.2552, 0.0141,-0.9918, 0.3147,-0.2769, 2.5309,-0.2928, 0.3597, 2.0430
09-Sep-2020 10:52:40.462,-0.2900, 0.0060,-0.9248, 0.0556,-0.1368, 2.6070,-0.3048, 0.3552, 2.0698
09-Sep-2020 10:52:40.472,-0.3361, 0.0028,-0.8719,-0.3559, 0.2309, 2.7484,-0.3151, 0.3477, 2.0963
09-Sep-2020 10:52:40.482,-0.3654, 0.0054,-0.8848,-0.8422, 0.6367, 2.8982,-0.3216, 0.3357, 2.1228
09-Sep-2020 10:52:40.492,-0.3671,-0.0080,-0.9364,-1.2265, 0.8347, 2.9594,-0.3238, 0.3187, 2.1489
09-Sep-2020 10:52:40.502,-0.3600,-0.0521,-0.9977,-1.3835, 0.9021, 2.9252,-0.3233, 0.2979, 2.1742
09-Sep-2020 10:52:40.512,-0.3723,-0.0882,-1.0682,-1.4020, 0.8578, 2.8077,-0.3212, 0.2757, 2.1985
09-Sep-2020 10:52:40.522,-0.3677,-0.1016,-1.1263,-1.3598, 0.6754, 2.6581,-0.3188, 0.2537, 2.2215
09-Sep-2020 10:52:40.532,-0.3305,-0.1275,-1.1634,-1.2606, 0.4991, 2.5300,-0.3173, 0.2326, 2.2431
09-Sep-2020 10:52:40.542,-0.2706,-0.1204,-1.1656,-1.1822, 0.3622, 2.4700,-0.3169, 0.2128, 2.2638
09-Sep-2020 10:52:40.552,-0.1992,-0.0665,-1.1283,-1.0859, 0.1839, 2.4465,-0.3173, 0.1939, 2.2840
09-Sep-2020 10:52:40.562,-0.1492,-0.0109,-1.0804,-0.9751, 0.1414, 2.4025,-0.3191, 0.1761, 2.3041
09-Sep-2020 10:52:40.572,-0.1682, 0.0234,-1.0125,-0.8934, 0.2930, 2.3283,-0.3210, 0.1594, 2.3241
09-Sep-2020 10:52:40.582,-0.2373, 0.0016,-0.9397,-0.7422, 0.6308, 2.1991,-0.3209, 0.1437, 2.3436
09-Sep-2020 10:52:40.592,-0.3109,-0.0500,-0.8768,-0.5683, 0.9843, 2.0225,-0.3171, 0.1298, 2.3623
09-Sep-2020 10:52:40.602,-0.3505,-0.1244,-0.8691,-0.5325, 1.1537, 1.8637,-0.3095, 0.1181, 2.3799
09-Sep-2020 10:52:40.612,-0.3512,-0.1998,-0.8993,-0.6386, 1.0053, 1.7312,-0.3001, 0.1074, 2.3962
09-Sep-2020 10:52:40.621,-0.2941,-0.2373,-0.9452,-0.7486, 0.6285, 1.6153,-0.2918, 0.0963, 2.4110
09-Sep-2020 10:52:40.631,-0.2096,-0.2318,-1.0045,-0.7696, 0.3496, 1.5285,-0.2867, 0.0846, 2.4244
09-Sep-2020 10:52:40.641,-0.1696,-0.1650,-1.0024,-0.7283, 0.1622, 1.4628,-0.2841, 0.0730, 2.4370
09-Sep-2020 10:52:40.651,-0.1834,-0.0659,-1.0204,-0.6206, 0.0491, 1.4051,-0.2833, 0.0620, 2.4491
09-Sep-2020 10:52:40.661,-0.1936,-0.0166,-1.0496,-0.4447, 0.0483, 1.3029,-0.2834, 0.0522, 2.4608
09-Sep-2020 10:52:40.671,-0.1897,-0.0050,-1.0740,-0.2436, 0.0511, 1.1875,-0.2834, 0.0443, 2.4721
09-Sep-2020 10:52:40.681,-0.1665,-0.0261,-1.1122,-0.0969, 0.0645, 1.0948,-0.2834, 0.0387, 2.4829
09-Sep-2020 10:52:40.691,-0.1492,-0.0234,-1.1055,-0.0321, 0.1500, 1.0645,-0.2830, 0.0346, 2.4932
09-Sep-2020 10:52:40.701,-0.1469,-0.0014,-1.0885,-0.0072, 0.2344, 1.1232,-0.2819, 0.0314, 2.5034
09-Sep-2020 10:52:40.711,-0.1480, 0.0291,-1.0854, 0.0290, 0.2999, 1.2173,-0.2799, 0.0281, 2.5142
09-Sep-2020 10:52:40.721,-0.1231, 0.0502,-1.1183, 0.1032, 0.2246, 1.3262,-0.2773, 0.0251, 2.5261
09-Sep-2020 10:52:40.731,-0.0957, 0.0498,-1.1425, 0.1815, 0.0215, 1.4261,-0.2755, 0.0225, 2.5391
09-Sep-2020 10:52:40.741,-0.0982, 0.0349,-1.1232, 0.2367,-0.3105, 1.4712,-0.2757, 0.0204, 2.5533
09-Sep-2020 10:52:40.751,-0.1134, 0.0102,-1.1195, 0.2681,-0.6872, 1.4565,-0.2790, 0.0186, 2.5681
09-Sep-2020 10:52:40.761,-0.1214,-0.0016,-1.0933, 0.3566,-0.9716, 1.3725,-0.2861, 0.0172, 2.5828
09-Sep-2020 10:52:40.771,-0.1671, 0.0144,-1.0240, 0.4768,-1.1036, 1.2556,-0.2959, 0.0167, 2.5970
09-Sep-2020 10:52:40.781,-0.2460, 0.0210,-0.9393, 0.5690,-1.1302, 1.1666,-0.3070, 0.0175, 2.6104
09-Sep-2020 10:52:40.791,-0.2741,-0.0128,-0.8941, 0.6046,-1.1221, 1.1608,-0.3184, 0.0192, 2.6233
09-Sep-2020 10:52:40.801,-0.2633,-0.0554,-0.8817, 0.5968,-1.3337, 1.2055,-0.3300, 0.0212, 2.6363
09-Sep-2020 10:52:40.811,-0.2623,-0.0713,-0.9256, 0.5778,-1.7758, 1.2205,-0.3437, 0.0229, 2.6497
09-Sep-2020 10:52:40.821,-0.2670,-0.0472,-0.9872, 0.6254,-2.1336, 1.1980,-0.3617, 0.0241, 2.6631
09-Sep-2020 10:52:40.831,-0.2626,-0.0313,-1.0057, 0.8786,-2.1502, 1.2219,-0.3830, 0.0257, 2.6766
09-Sep-2020 10:52:40.840,-0.2725,-0.0322,-0.9956, 1.2096,-2.0559, 1.2911,-0.4047, 0.0291, 2.6914
09-Sep-2020 10:52:40.850,-0.3004,-0.0182,-1.0023, 1.4121,-2.0860, 1.3345,-0.4258, 0.0349, 2.7080
09-Sep-2020 10:52:40.860,-0.3222,-0.0164,-0.9639, 1.3788,-2.0875, 1.3342,-0.4473, 0.0419, 2.7260
09-Sep-2020 10:52:40.870,-0.3767,-0.0299,-0.8158, 1.1427,-1.8118, 1.3080,-0.4686, 0.0482, 2.7440
09-Sep-2020 10:52:40.880,-0.4760,-0.0427,-0.6739, 0.7214,-1.2983, 1.2393,-0.4873, 0.0522, 2.7608
09-Sep-2020 10:52:40.890,-0.5301,-0.0665,-0.5989, 0.2385,-0.7804, 1.2201,-0.5010, 0.0526, 2.7752
09-Sep-2020 10:52:40.900,-0.5654,-0.0964,-0.6029,-0.2102,-0.2991, 1.2893,-0.5094, 0.0488, 2.7871
09-Sep-2020 10:52:40.910,-0.5871,-0.1146,-0.6525,-0.5746, 0.0711, 1.3515,-0.5129, 0.0407, 2.7974
09-Sep-2020 10:52:40.920,-0.5924,-0.1078,-0.7450,-0.7605, 0.2119, 1.3447,-0.5126, 0.0292, 2.8064
09-Sep-2020 10:52:40.930,-0.6156,-0.0856,-0.8311,-0.8164, 0.2998, 1.2350,-0.5107, 0.0161, 2.8144
09-Sep-2020 10:52:40.940,-0.6624,-0.0432,-0.8250,-0.7868, 0.3552, 1.1317,-0.5078, 0.0031, 2.8213
09-Sep-2020 10:52:40.950,-0.6730,-0.0284,-0.8082,-0.7784, 0.2413, 1.0612,-0.5043,-0.0093, 2.8275
09-Sep-2020 10:52:40.960,-0.6777, 0.0132,-0.8024,-0.8575,-0.1796, 0.9358,-0.5021,-0.0212, 2.8330
09-Sep-2020 10:52:40.970,-0.7394, 0.1179,-0.8128,-0.9805,-0.8458, 0.7729,-0.5039,-0.0332, 2.8371
09-Sep-2020 10:52:40.979,-0.6790, 0.0749,-0.9178,-0.9832,-1.5392, 0.8070,-0.5123,-0.0455, 2.8393
09-Sep-2020 10:52:40.990,-0.5517,-0.0348,-1.0571,-0.8839,-2.2626, 0.9979,-0.5274,-0.0580, 2.8416
09-Sep-2020 10:52:40.999,-0.5612,-0.0325,-1.0739,-0.8190,-3.0441, 1.1342,-0.5498,-0.0706, 2.8457
09-Sep-2020 10:52:41.010,-0.6201, 0.0297,-0.9693,-0.7946,-3.6518, 1.1347,-0.5796,-0.0836, 2.8509
09-Sep-2020 10:52:41.020,-0.6483, 0.0718,-0.8073,-0.7830,-4.0064, 1.1052,-0.6153,-0.0964, 2.8558
09-Sep-2020 10:52:41.030,-0.6360, 0.0567,-0.7033,-0.7588,-4.1725, 1.1365,-0.6546,-0.1093, 2.8602
09-Sep-2020 10:52:41.040,-0.6146, 0.0202,-0.7021,-0.6935,-4.1918, 1.2336,-0.6955,-0.1223, 2.8645
09-Sep-2020 10:52:41.050,-0.5522,-0.0197,-0.6983,-0.6587,-4.0712, 1.3474,-0.7365,-0.1356, 2.8693
09-Sep-2020 10:52:41.060,-0.5435,-0.0075,-0.6232,-0.6988,-3.8513, 1.5239,-0.7762,-0.1496, 2.8747
09-Sep-2020 10:52:41.070,-0.6016,-0.0120,-0.5220,-0.7056,-3.5026, 1.7018,-0.8135,-0.1654, 2.8805
09-Sep-2020 10:52:41.079,-0.6782,-0.0049,-0.5338,-0.7714,-3.3046, 1.7841,-0.8474,-0.1826, 2.8869
09-Sep-2020 10:52:41.089,-0.7915, 0.0391,-0.5161,-0.9530,-3.3397, 1.7835,-0.8794,-0.2012, 2.8926
09-Sep-2020 10:52:41.099,-0.8710, 0.0477,-0.5014,-1.1433,-3.5360, 1.8008,-0.9119,-0.2210, 2.8965
09-Sep-2020 10:52:41.109,-0.9059, 0.0464,-0.5031,-1.3340,-3.8332, 1.8411,-0.9468,-0.2422, 2.8982
09-Sep-2020 10:52:41.119,-0.9454, 0.1098,-0.4959,-1.4989,-4.2117, 1.8280,-0.9851,-0.2648, 2.8978
09-Sep-2020 10:52:41.129,-0.9657, 0.1873,-0.4795,-1.6082,-4.4723, 1.8002,-1.0277,-0.2882, 2.8949
09-Sep-2020 10:52:41.139,-0.9583, 0.2063,-0.4291,-1.6717,-4.5757, 1.7957,-1.0737,-0.3118, 2.8898
09-Sep-2020 10:52:41.149,-0.9704, 0.2077,-0.3833,-1.7124,-4.6660, 1.7677,-1.1214,-0.3353, 2.8828
09-Sep-2020 10:52:41.159,-0.9884, 0.2315,-0.3631,-1.7263,-4.6742, 1.7243,-1.1708,-0.3583, 2.8741
09-Sep-2020 10:52:41.169,-0.9897, 0.2508,-0.3257,-1.7081,-4.4830, 1.7175,-1.2210,-0.3807, 2.8638
09-Sep-2020 10:52:41.179,-0.9939, 0.2468,-0.2606,-1.6841,-4.1709, 1.7428,-1.2699,-0.4024, 2.8523
09-Sep-2020 10:52:41.189,-1.0453, 0.2448,-0.2112,-1.6229,-3.7583, 1.7256,-1.3163,-0.4237, 2.8400
09-Sep-2020 10:52:41.199,-1.1555, 0.2445,-0.1725,-1.6229,-3.7583, 1.7256,-1.3590,-0.4441, 2.8271
09-Sep-2020 10:52:41.209,-1.2889, 0.2417,-0.1264,-1.3337,-2.4519, 1.2811,-1.3961,-0.4624, 2.8142
09-Sep-2020 10:52:41.219,-1.3893, 0.2660,-0.1155,-1.1240,-1.7227, 0.8769,-1.4261,-0.4771, 2.8018
09-Sep-2020 10:52:41.229,-1.3898, 0.2762,-0.1163,-0.8796,-0.9935, 0.5277,-1.4484,-0.4873, 2.7907
09-Sep-2020 10:52:41.239,-1.3038, 0.2526,-0.1077,-0.6393,-0.3187, 0.3025,-1.4627,-0.4937, 2.7816
09-Sep-2020 10:52:41.248,-1.1899, 0.2368,-0.1041,-0.4647, 0.2139, 0.1981,-1.4692,-0.4975, 2.7747
09-Sep-2020 10:52:41.258,-1.1087, 0.2317,-0.0916,-0.3949, 0.6232, 0.1851,-1.4695,-0.5000, 2.7697
09-Sep-2020 10:52:41.268,-1.0695, 0.2422,-0.0587,-0.4694, 0.9257, 0.2079,-1.4655,-0.5024, 2.7654
09-Sep-2020 10:52:41.278,-1.0804, 0.2505,-0.0142,-0.7404, 1.2272, 0.2853,-1.4587,-0.5050, 2.7602
09-Sep-2020 10:52:41.288,-1.1355, 0.2117,-0.0138,-1.1397, 1.1331, 0.3318,-1.4507,-0.5088, 2.7522
09-Sep-2020 10:52:41.299,-1.1546, 0.1867,-0.1282,-1.3955, 0.7735, 0.4269,-1.4456,-0.5135, 2.7399
09-Sep-2020 10:52:41.308,-1.1046, 0.2480,-0.2230,-1.4572, 0.3864, 0.5687,-1.4454,-0.5196, 2.7248
09-Sep-2020 10:52:41.318,-1.0504, 0.3622,-0.2805,-1.3695, 0.0793, 0.6869,-1.4494,-0.5270, 2.7092
09-Sep-2020 10:52:41.328,-1.0273, 0.4312,-0.2912,-1.1702,-0.0183, 0.8016,-1.4559,-0.5355, 2.6945
09-Sep-2020 10:52:41.338,-1.0525, 0.4382,-0.2521,-0.9267, 0.1527, 0.8374,-1.4622,-0.5447, 2.6822
09-Sep-2020 10:52:41.348,-1.1114, 0.4333,-0.1959,-0.6669, 0.4806, 0.7640,-1.4656,-0.5540, 2.6725
09-Sep-2020 10:52:41.358,-1.1543, 0.4324,-0.1529,-0.4364, 0.7982, 0.6516,-1.4645,-0.5623, 2.6657
09-Sep-2020 10:52:41.368,-1.1466, 0.4523,-0.1283,-0.2730, 0.9868, 0.5412,-1.4589,-0.5693, 2.6614
09-Sep-2020 10:52:41.378,-1.0911, 0.4824,-0.1115,-0.1939, 1.0415, 0.4996,-1.4506,-0.5751, 2.6589
09-Sep-2020 10:52:41.388,-0.9801, 0.4884,-0.0869,-0.1407, 0.9988, 0.5469,-1.4411,-0.5804, 2.6574
09-Sep-2020 10:52:41.398,-0.8640, 0.4528,-0.0548,-0.0765, 0.9220, 0.6760,-1.4316,-0.5861, 2.6567
09-Sep-2020 10:52:41.408,-0.7947, 0.4422,-0.0167,-0.1245, 0.8499, 0.8442,-1.4223,-0.5930, 2.6570
09-Sep-2020 10:52:41.418,-0.7914, 0.4519, 0.0144,-0.2822, 0.6983, 0.9505,-1.4138,-0.6015, 2.6570
09-Sep-2020 10:52:41.428,-0.8180, 0.4503, 0.0109,-0.5171, 0.4295, 0.9647,-1.4079,-0.6113, 2.6554
09-Sep-2020 10:52:41.438,-0.8275, 0.4832,-0.0096,-0.6725, 0.2715, 0.9558,-1.4059,-0.6217, 2.6512
09-Sep-2020 10:52:41.448,-0.7880, 0.4870,-0.0225,-0.6958, 0.2785, 0.9659,-1.4067,-0.6322, 2.6452
09-Sep-2020 10:52:41.458,-0.7345, 0.4931,-0.0461,-0.5888, 0.4033, 0.9865,-1.4076,-0.6429, 2.6388
09-Sep-2020 10:52:41.468,-0.6910, 0.5074,-0.0721,-0.4289, 0.5254, 1.0162,-1.4067,-0.6536, 2.6336
09-Sep-2020 10:52:41.478,-0.6662, 0.5348,-0.0873,-0.3120, 0.6369, 1.0506,-1.4035,-0.6643, 2.6305
09-Sep-2020 10:52:41.488,-0.6593, 0.5589,-0.0877,-0.3067, 0.7498, 1.0540,-1.3982,-0.6752, 2.6288
09-Sep-2020 10:52:41.498,-0.6591, 0.5658,-0.1018,-0.3056, 0.8444, 1.0060,-1.3916,-0.6861, 2.6273
09-Sep-2020 10:52:41.507,-0.6566, 0.5676,-0.1275,-0.1911, 0.9164, 1.0094,-1.3841,-0.6966, 2.6260
09-Sep-2020 10:52:41.517,-0.6545, 0.5866,-0.1920, 0.0214, 0.7302, 1.0230,-1.3751,-0.7069, 2.6261
09-Sep-2020 10:52:41.527,-0.6788, 0.6243,-0.2541, 0.3448, 0.4648, 1.0017,-1.3658,-0.7168, 2.6293
09-Sep-2020 10:52:41.537,-0.7016, 0.6743,-0.2531, 0.6933, 0.2261, 0.9300,-1.3564,-0.7259, 2.6366
09-Sep-2020 10:52:41.547,-0.7116, 0.6933,-0.2112, 0.9835, 0.0504, 0.8359,-1.3462,-0.7335, 2.6484
09-Sep-2020 10:52:41.557,-0.7045, 0.6802,-0.1290, 1.1590, 0.0053, 0.7381,-1.3353,-0.7394, 2.6638
09-Sep-2020 10:52:41.567,-0.6847, 0.6740,-0.0312, 1.1885, 0.0679, 0.6407,-1.3234,-0.7439, 2.6813
09-Sep-2020 10:52:41.577,-0.6491, 0.6971, 0.0474, 1.1032, 0.2303, 0.5485,-1.3106,-0.7472, 2.6990
09-Sep-2020 10:52:41.587,-0.6013, 0.7369, 0.1028, 0.9037, 0.4845, 0.4781,-1.2971,-0.7496, 2.7154
09-Sep-2020 10:52:41.597,-0.5654, 0.7670, 0.1244, 0.6921, 0.7773, 0.4325,-1.2829,-0.7518, 2.7291
09-Sep-2020 10:52:41.607,-0.5366, 0.7919, 0.1113, 0.5475, 1.1634, 0.4419,-1.2677,-0.7540, 2.7400
09-Sep-2020 10:52:41.617,-0.5524, 0.8682, 0.0680, 0.4774, 1.4568, 0.4148,-1.2499,-0.7566, 2.7491
09-Sep-2020 10:52:41.627,-0.6117, 0.9395,-0.0116, 0.4453, 1.5845, 0.3099,-1.2299,-0.7589, 2.7572
09-Sep-2020 10:52:41.637,-0.6615, 0.9622,-0.0599, 0.4272, 1.6292, 0.1926,-1.2092,-0.7603, 2.7645
09-Sep-2020 10:52:41.647,-0.6932, 0.9507,-0.0897, 0.3435, 1.3967, 0.0655,-1.1887,-0.7606, 2.7710
09-Sep-2020 10:52:41.657,-0.7020, 0.9118,-0.1359, 0.1931, 0.9146,-0.0256,-1.1718,-0.7600, 2.7757
09-Sep-2020 10:52:41.667,-0.6628, 0.8512,-0.1627, 0.0251, 0.4008,-0.0622,-1.1611,-0.7591, 2.7781
09-Sep-2020 10:52:41.677,-0.5932, 0.8190,-0.1643,-0.0994, 0.0933,-0.0682,-1.1569,-0.7585, 2.7782
09-Sep-2020 10:52:41.686,-0.5271, 0.8018,-0.1434,-0.1611, 0.1001,-0.0567,-1.1568,-0.7584, 2.7767
09-Sep-2020 10:52:41.697,-0.4921, 0.7690,-0.1246,-0.1895, 0.3003,-0.0618,-1.1572,-0.7585, 2.7745
09-Sep-2020 10:52:41.706,-0.4882, 0.7446,-0.1295,-0.1705, 0.5830,-0.0762,-1.1560,-0.7588, 2.7719
09-Sep-2020 10:52:41.716,-0.4907, 0.7321,-0.1463,-0.1494, 0.7983,-0.0870,-1.1519,-0.7588, 2.7694
09-Sep-2020 10:52:41.726,-0.5048, 0.6887,-0.1878,-0.1493, 0.7963,-0.0729,-1.1457,-0.7587, 2.7672
09-Sep-2020 10:52:41.736,-0.5204, 0.6413,-0.2364,-0.1565, 0.6524,-0.0528,-1.1394,-0.7587, 2.7650
09-Sep-2020 10:52:41.746,-0.5320, 0.6418,-0.2656,-0.1482, 0.4798,-0.0467,-1.1344,-0.7589, 2.7628
09-Sep-2020 10:52:41.756,-0.5232, 0.6518,-0.2684,-0.1154, 0.4080,-0.0333,-1.1309,-0.7592, 2.7608
09-Sep-2020 10:52:41.766,-0.4953, 0.6436,-0.2446,-0.0954, 0.4589, 0.0060,-1.1279,-0.7595, 2.7592
09-Sep-2020 10:52:41.776,-0.4686, 0.6281,-0.2188,-0.1095, 0.5985, 0.0564,-1.1240,-0.7600, 2.7581
09-Sep-2020 10:52:41.786,-0.4455, 0.6066,-0.2041,-0.1598, 0.8175, 0.1522,-1.1186,-0.7611, 2.7572
09-Sep-2020 10:52:41.796,-0.4199, 0.5924,-0.2099,-0.2195, 1.0386, 0.2285,-1.1112,-0.7632, 2.7562
09-Sep-2020 10:52:41.806,-0.4187, 0.5977,-0.2478,-0.2019, 1.2683, 0.2779,-1.1017,-0.7662, 2.7551
09-Sep-2020 10:52:41.816,-0.4299, 0.6152,-0.2865,-0.2019, 1.2683, 0.2779,-1.0895,-0.7696, 2.7545
09-Sep-2020 10:52:41.826,-0.4587, 0.6344,-0.3194,-0.0123, 1.5039, 0.3050,-1.0747,-0.7729, 2.7552
09-Sep-2020 10:52:41.836,-0.4973, 0.6522,-0.3409, 0.0517, 1.4355, 0.3205,-1.0584,-0.7757, 2.7572
09-Sep-2020 10:52:41.846,-0.5240, 0.6823,-0.3521, 0.0420, 1.2289, 0.3423,-1.0422,-0.7783, 2.7601
09-Sep-2020 10:52:41.856,-0.5564, 0.6963,-0.3549,-0.0917, 0.9460, 0.3347,-1.0280,-0.7810, 2.7630
09-Sep-2020 10:52:41.865,-0.5662, 0.7415,-0.4320, 0.4615, 0.4253, 0.3091,-1.0174,-0.7843, 2.7647
09-Sep-2020 10:52:41.876,-0.5775, 0.9473,-1.3317, 1.0836,-0.4035, 0.2376,-1.0083,-0.7845, 2.7721
09-Sep-2020 10:52:41.885,-0.5416, 0.6128,-0.9771, 1.2327,-0.5816, 0.4376,-1.0016,-0.7811, 2.7868
09-Sep-2020 10:52:41.895,-0.6801, 0.6607,-0.5472, 0.7475,-0.7669, 0.1647,-0.9957,-0.7781, 2.8038
09-Sep-2020 10:52:41.905,-1.0159, 0.8193,-0.0818, 0.3129,-0.2553, 0.2030,-0.9954,-0.7756, 2.8142
09-Sep-2020 10:52:41.915,-0.3964, 0.6901,-0.2100, 0.2312, 0.0058, 0.3817,-0.9942,-0.7756, 2.8198
09-Sep-2020 10:52:41.925,-0.4805, 0.7432,-0.4601, 0.2770, 0.0785, 0.3287,-0.9902,-0.7773, 2.8255
09-Sep-2020 10:52:41.935,-0.5967, 0.7423,-0.4995, 0.3679, 0.0452, 0.3330,-0.9854,-0.7786, 2.8314
09-Sep-2020 10:52:41.945,-0.5833, 0.7009,-0.4956, 0.4721,-0.0437, 0.3413,-0.9801,-0.7794, 2.8384
09-Sep-2020 10:52:41.955,-0.5693, 0.7057,-0.4453, 0.6251,-0.0636, 0.3013,-0.9747,-0.7796, 2.8466
09-Sep-2020 10:52:41.965,-0.5938, 0.7074,-0.4559, 0.7805,-0.1330, 0.2731,-0.9686,-0.7786, 2.8563
09-Sep-2020 10:52:41.975,-0.5834, 0.6614,-0.4600, 0.8725,-0.1697, 0.2972,-0.9620,-0.7765, 2.8676
09-Sep-2020 10:52:41.985,-0.5440, 0.6292,-0.4217, 0.8599,-0.1539, 0.3582,-0.9550,-0.7740, 2.8799
09-Sep-2020 10:52:41.995,-0.5139, 0.6201,-0.3916, 0.8126,-0.0844, 0.4354,-0.9477,-0.7720, 2.8926
09-Sep-2020 10:52:42.005,-0.5226, 0.6167,-0.4167, 0.8181, 0.0598, 0.5054,-0.9395,-0.7708, 2.9055
09-Sep-2020 10:52:42.015,-0.5471, 0.6206,-0.4788, 0.8841, 0.1628, 0.5110,-0.9296,-0.7700, 2.9189
09-Sep-2020 10:52:42.025,-0.5983, 0.6016,-0.5303, 1.0098, 0.2374, 0.4616,-0.9182,-0.7687, 2.9330
09-Sep-2020 10:52:42.035,-0.5942, 0.6102,-0.5387, 1.1083, 0.2701, 0.4699,-0.9054,-0.7663, 2.9481
09-Sep-2020 10:52:42.045,-0.5359, 0.6600,-0.5639, 1.1418, 0.1551, 0.5063,-0.8917,-0.7632, 2.9642
09-Sep-2020 10:52:42.055,-0.5094, 0.7031,-0.5941, 1.1330, 0.0991, 0.5089,-0.8787,-0.7599, 2.9808
09-Sep-2020 10:52:42.065,-0.5282, 0.7077,-0.5842, 1.0828, 0.0750, 0.5245,-0.8664,-0.7566, 2.9972
09-Sep-2020 10:52:42.074,-0.5227, 0.6761,-0.5882, 0.9835, 0.0374, 0.5304,-0.8547,-0.7536, 3.0132
09-Sep-2020 10:52:42.085,-0.5408, 0.6441,-0.5572, 0.7972, 0.0449, 0.5107,-0.8442,-0.7511, 3.0281
09-Sep-2020 10:52:42.095,-0.5758, 0.6474,-0.5191, 0.6104, 0.0053, 0.4306,-0.8351,-0.7496, 3.0409
09-Sep-2020 10:52:42.105,-0.5941, 0.6789,-0.5555, 0.4828,-0.0851, 0.3015,-0.8281,-0.7487, 3.0510
09-Sep-2020 10:52:42.114,-0.5954, 0.6907,-0.5699, 0.4144,-0.1618, 0.2007,-0.8237,-0.7476, 3.0588
09-Sep-2020 10:52:42.125,-0.5926, 0.6756,-0.5383, 0.4098,-0.1410, 0.2594,-0.8210,-0.7464, 3.0650
09-Sep-2020 10:52:42.134,-0.5594, 0.5716,-0.5101, 0.4579,-0.1356, 0.4746,-0.8180,-0.7456, 3.0717
09-Sep-2020 10:52:42.144,-0.5317, 0.4750,-0.5358, 0.4920,-0.1049, 0.7548,-0.8132,-0.7459, 3.0807
09-Sep-2020 10:52:42.154,-0.5298, 0.4118,-0.5230, 0.4842, 0.0144, 1.0434,-0.8061,-0.7481, 3.0927
09-Sep-2020 10:52:42.164,-0.5407, 0.4004,-0.4823, 0.5023, 0.0716, 1.3159,-0.7959,-0.7522, 3.1074
09-Sep-2020 10:52:42.174,-0.5218, 0.4328,-0.5044, 0.5872,-0.0065, 1.6151,-0.7832,-0.7580, 3.1251
09-Sep-2020 10:52:42.184,-0.4992, 0.4877,-0.5252, 0.7276,-0.0869, 1.8897,-0.7683,-0.7650,-3.1364
09-Sep-2020 10:52:42.194,-0.4937, 0.5482,-0.5106, 0.8809,-0.1130, 2.1276,-0.7511,-0.7727,-3.1104
09-Sep-2020 10:52:42.204,-0.4660, 0.5746,-0.5312, 1.0308,-0.1161, 2.3794,-0.7310,-0.7806,-3.0801
09-Sep-2020 10:52:42.214,-0.4264, 0.5704,-0.5685, 1.1081,-0.0953, 2.7064,-0.7075,-0.7886,-3.0453
09-Sep-2020 10:52:42.224,-0.3842, 0.5565,-0.5802, 1.1638, 0.0821, 3.1737,-0.6801,-0.7974,-3.0055
09-Sep-2020 10:52:42.234,-0.3239, 0.5408,-0.5871, 1.2013, 0.4057, 3.8036,-0.6459,-0.8078,-2.9592
09-Sep-2020 10:52:42.244,-0.3048, 0.5918,-0.5868, 1.1752, 0.6872, 4.4741,-0.6019,-0.8203,-2.9042
09-Sep-2020 10:52:42.254,-0.3545, 0.7380,-0.6229, 1.1437, 0.7665, 5.2289,-0.5474,-0.8348,-2.8393
09-Sep-2020 10:52:42.264,-0.2722, 0.7454,-0.6050, 1.0769, 0.7553, 5.8261,-0.4828,-0.8505,-2.7628
09-Sep-2020 10:52:42.274,-0.3391, 0.7939,-0.5446, 1.0438, 0.6893, 6.1621,-0.4095,-0.8657,-2.6758
09-Sep-2020 10:52:42.284,-0.3495, 0.9014,-0.5898, 1.0849, 0.5101, 6.2646,-0.3302,-0.8781,-2.5811
09-Sep-2020 10:52:42.294,-0.3671, 0.9889,-0.6292, 1.1627, 0.2613, 6.1517,-0.2489,-0.8855,-2.4824
09-Sep-2020 10:52:42.303,-0.3266, 1.0339,-0.6547, 1.2833, 0.0150, 5.9171,-0.1699,-0.8868,-2.3838
09-Sep-2020 10:52:42.313,-0.2343, 1.0355,-0.6582, 1.4000,-0.1539, 5.6486,-0.0963,-0.8820,-2.2889
09-Sep-2020 10:52:42.324,-0.1233, 1.0053,-0.6643, 1.4698,-0.3360, 5.3914,-0.0293,-0.8716,-2.1997
09-Sep-2020 10:52:42.333,-0.0167, 0.9673,-0.6730, 1.4698,-0.4439, 5.1444, 0.0304,-0.8569,-2.1170
09-Sep-2020 10:52:42.344, 0.0593, 0.9541,-0.6326, 1.4293,-0.3913, 4.9191, 0.0832,-0.8393,-2.0408
09-Sep-2020 10:52:42.353, 0.1295, 0.9191,-0.6287, 1.3395,-0.3518, 4.7276, 0.1310,-0.8200,-1.9708
09-Sep-2020 10:52:42.364, 0.1866, 0.8641,-0.6529, 1.1911,-0.3225, 4.5602, 0.1742,-0.7996,-1.9062
09-Sep-2020 10:52:42.373, 0.2092, 0.8179,-0.6451, 0.9871,-0.2330, 4.4377, 0.2137,-0.7792,-1.8461
09-Sep-2020 10:52:42.383, 0.2486, 0.7586,-0.6354, 0.8441,-0.3037, 4.4256, 0.2510,-0.7594,-1.7892
09-Sep-2020 10:52:42.393, 0.4470, 0.7759,-0.8815, 1.0066,-0.2816, 4.3619, 0.2854,-0.7393,-1.7344
09-Sep-2020 10:52:42.403, 0.3878, 0.7638,-0.7724, 0.9354, 0.2194, 4.3636, 0.3173,-0.7170,-1.6826
09-Sep-2020 10:52:42.413, 0.5175, 0.6671,-0.4164, 0.6718, 0.4018, 4.4152, 0.3516,-0.6940,-1.6325
09-Sep-2020 10:52:42.423, 0.5716, 0.6157,-0.6454, 0.6271, 0.3650, 4.3801, 0.3868,-0.6717,-1.5829
09-Sep-2020 10:52:42.433, 0.4769, 0.6213,-0.7905, 0.6899, 0.3494, 4.1776, 0.4197,-0.6488,-1.5353
09-Sep-2020 10:52:42.443, 0.4286, 0.6667,-0.6772, 0.7201, 0.4164, 3.8618, 0.4490,-0.6250,-1.4920
09-Sep-2020 10:52:42.453, 0.4060, 0.6672,-0.6291, 0.7622, 0.3788, 3.4718, 0.4750,-0.6014,-1.4538
09-Sep-2020 10:52:42.462, 0.3864, 0.6543,-0.6840, 0.7921, 0.2296, 3.0723, 0.4968,-0.5785,-1.4213
09-Sep-2020 10:52:42.472, 0.3729, 0.6347,-0.6515, 0.4034, 0.8490, 2.7383, 0.5140,-0.5568,-1.3939
09-Sep-2020 10:52:42.482, 0.2763, 0.4740,-0.4265,-0.5304, 0.7491, 2.5350, 0.5351,-0.5401,-1.3682
09-Sep-2020 10:52:42.492, 0.4087, 0.5406,-0.7687,-0.7397, 0.2545, 2.4171, 0.5570,-0.5310,-1.3401
09-Sep-2020 10:52:42.502, 0.3899, 0.7008,-0.7727,-0.7519, 0.1165, 2.3325, 0.5739,-0.5242,-1.3120
09-Sep-2020 10:52:42.512, 0.3337, 0.6876,-0.6938,-0.7050,-0.0569, 2.3171, 0.5886,-0.5176,-1.2848
09-Sep-2020 10:52:42.522, 0.3637, 0.5981,-0.7308,-0.5733,-0.2796, 2.3307, 0.6010,-0.5103,-1.2583
09-Sep-2020 10:52:42.532, 0.4049, 0.4913,-0.7473,-0.3584,-0.4765, 2.3236, 0.6106,-0.5017,-1.2328
09-Sep-2020 10:52:42.542, 0.4196, 0.4364,-0.7151,-0.1436,-0.5874, 2.2619, 0.6172,-0.4913,-1.2090
09-Sep-2020 10:52:42.552, 0.4162, 0.4509,-0.6935, 0.5096,-0.6235, 2.0961, 0.6213,-0.4793,-1.1874
09-Sep-2020 10:52:42.562, 0.3505, 0.5056,-1.0307, 0.6779,-1.0884, 1.8725, 0.6221,-0.4635,-1.1712
09-Sep-2020 10:52:42.572, 0.4344, 0.6068,-0.6144, 0.5342,-1.6484, 1.6520, 0.6169,-0.4472,-1.1586
09-Sep-2020 10:52:42.582, 0.3927, 0.6750,-0.6443, 0.5987,-2.0211, 1.3971, 0.6055,-0.4332,-1.1472
09-Sep-2020 10:52:42.592, 0.3196, 0.6468,-0.7534, 0.6763,-2.4686, 1.2902, 0.5890,-0.4203,-1.1381
09-Sep-2020 10:52:42.602, 0.3105, 0.6152,-0.7815, 0.7546,-2.6650, 1.2913, 0.5677,-0.4076,-1.1303
09-Sep-2020 10:52:42.612, 0.2305, 0.5656,-0.7544, 0.8356,-2.5084, 1.3428, 0.5444,-0.3943,-1.1227
09-Sep-2020 10:52:42.622, 0.1439, 0.5768,-0.6837, 0.9641,-1.8872, 1.3596, 0.5226,-0.3803,-1.1148
09-Sep-2020 10:52:42.632, 0.0025, 0.6385,-0.6228, 1.2249,-0.6219, 1.2944, 0.5070,-0.3651,-1.1073
09-Sep-2020 10:52:42.642,-0.0991, 0.7550,-0.5060, 1.5239, 1.2241, 1.0260, 0.5033,-0.3482,-1.1016
09-Sep-2020 10:52:42.652,-0.1619, 0.8342,-0.3831, 1.7055, 2.1502, 1.0245, 0.5155,-0.3299,-1.0997
09-Sep-2020 10:52:42.662, 0.2014, 0.6280,-0.5256, 1.6783, 1.9999, 1.3790, 0.5365,-0.3101,-1.0990
09-Sep-2020 10:52:42.672, 0.4936, 0.4410,-0.5837, 1.5551, 1.3823, 1.5496, 0.5570,-0.2887,-1.0959
09-Sep-2020 10:52:42.682, 0.4793, 0.4350,-0.5688, 1.3418, 0.7139, 1.3547, 0.5720,-0.2675,-1.0911
09-Sep-2020 10:52:42.692, 0.4970, 0.4427,-0.4723, 1.0608, 0.1919, 1.1050, 0.5803,-0.2489,-1.0869
09-Sep-2020 10:52:42.701, 0.6432, 0.3507,-0.4096, 0.7527,-0.2908, 0.9973, 0.5830,-0.2340,-1.0833
09-Sep-2020 10:52:42.711, 0.6888, 0.2642,-0.4207, 0.7527,-0.2908, 0.9973, 0.5813,-0.2221,-1.0789
09-Sep-2020 10:52:42.722, 0.6078, 0.2264,-0.4257, 0.0090,-0.5789, 0.9621, 0.5772,-0.2133,-1.0729
09-Sep-2020 10:52:42.732, 0.5156, 0.1970,-0.3953,-0.5188,-0.4850, 0.9230, 0.5732,-0.2080,-1.0646
09-Sep-2020 10:52:42.742, 0.4174, 0.1873,-0.3581,-1.0838,-0.3818, 0.8120, 0.5706,-0.2073,-1.0539
09-Sep-2020 10:52:42.751, 0.3236, 0.2144,-0.3399,-1.5607,-0.3738, 0.6509, 0.5694,-0.2120,-1.0410
09-Sep-2020 10:52:42.762, 0.2659, 0.2352,-0.3652,-1.9307,-0.2589, 0.5034, 0.5688,-0.2215,-1.0268
09-Sep-2020 10:52:42.771, 0.2461, 0.2381,-0.3914,-2.1901, 0.0148, 0.3914, 0.5697,-0.2348,-1.0118
09-Sep-2020 10:52:42.781, 0.2510, 0.2203,-0.4307,-2.3385, 0.3663, 0.2784, 0.5736,-0.2509,-0.9963
09-Sep-2020 10:52:42.791, 0.2695, 0.2084,-0.4918,-2.4391, 0.6620, 0.1607, 0.5812,-0.2688,-0.9807
09-Sep-2020 10:52:42.801, 0.3004, 0.2188,-0.5770,-2.5242, 0.8460, 0.0328, 0.5919,-0.2881,-0.9653
09-Sep-2020 10:52:42.811, 0.3214, 0.2311,-0.6689,-2.5958, 1.0011,-0.1190, 0.6047,-0.3086,-0.9502
09-Sep-2020 10:52:42.821, 0.3562, 0.2258,-0.7362,-2.6485, 1.0538,-0.2262, 0.6192,-0.3303,-0.9356
09-Sep-2020 10:52:42.831, 0.4288, 0.2060,-0.8125,-2.6700, 0.9959,-0.3172, 0.6345,-0.3529,-0.9211
09-Sep-2020 10:52:42.841, 0.4621, 0.2031,-0.8806,-2.6445, 0.8598,-0.4135, 0.6494,-0.3759,-0.9067
09-Sep-2020 10:52:42.851, 0.5257, 0.1975,-0.9520,-2.5868, 0.6525,-0.4670, 0.6632,-0.3992,-0.8928
09-Sep-2020 10:52:42.861, 0.5844, 0.1888,-0.9989,-2.5541, 0.4488,-0.4926, 0.6750,-0.4222,-0.8793
09-Sep-2020 10:52:42.871, 0.5973, 0.2027,-1.0046,-2.5713, 0.3189,-0.4948, 0.6852,-0.4450,-0.8658
09-Sep-2020 10:52:42.881, 0.6105, 0.2503,-1.0327,-2.5745, 0.2359,-0.4744, 0.6945,-0.4678,-0.8519
09-Sep-2020 10:52:42.891, 0.6235, 0.3306,-1.1047,-2.4550, 0.1803,-0.4486, 0.7035,-0.4903,-0.8374
09-Sep-2020 10:52:42.901, 0.6400, 0.4105,-1.2005,-2.1673, 0.1489,-0.4324, 0.7121,-0.5116,-0.8232
09-Sep-2020 10:52:42.910, 0.6565, 0.4652,-1.2542,-1.7620, 0.1605,-0.4290, 0.7199,-0.5306,-0.8107
09-Sep-2020 10:52:42.920, 0.6838, 0.4831,-1.2567,-1.3594, 0.1839,-0.4264, 0.7265,-0.5465,-0.8008
09-Sep-2020 10:52:42.930, 0.6929, 0.4731,-1.2034,-1.0593, 0.2041,-0.4244, 0.7320,-0.5593,-0.7939
09-Sep-2020 10:52:42.941, 0.6941, 0.4581,-1.1273,-0.8751, 0.2151,-0.4384, 0.7366,-0.5700,-0.7891
09-Sep-2020 10:52:42.950, 0.6884, 0.4529,-1.0555,-0.7777, 0.2180,-0.4716, 0.7404,-0.5793,-0.7859
09-Sep-2020 10:52:42.960, 0.6959, 0.4308,-1.0045,-0.7281, 0.2532,-0.4891, 0.7438,-0.5881,-0.7837
09-Sep-2020 10:52:42.970, 0.7228, 0.4307,-0.9893,-0.6690, 0.2705,-0.4545, 0.7472,-0.5967,-0.7821
09-Sep-2020 10:52:42.980, 0.7684, 0.4602,-1.0153,-0.5471, 0.2543,-0.3700, 0.7507,-0.6045,-0.7806
09-Sep-2020 10:52:42.990, 0.7935, 0.5101,-1.0471,-0.3536, 0.2156,-0.2914, 0.7540,-0.6109,-0.7793
09-Sep-2020 10:52:43.000, 0.7786, 0.5617,-1.0567,-0.1136, 0.1665,-0.2478, 0.7563,-0.6154,-0.7790
09-Sep-2020 10:52:43.010, 0.7651, 0.5953,-1.0429, 0.1135, 0.0664,-0.2182, 0.7572,-0.6179,-0.7802
09-Sep-2020 10:52:43.020, 0.7588, 0.6189,-1.0064, 0.2864,-0.0596,-0.2011, 0.7562,-0.6185,-0.7830
09-Sep-2020 10:52:43.030, 0.7403, 0.6316,-0.9424, 0.4196,-0.1718,-0.1902, 0.7532,-0.6177,-0.7871
09-Sep-2020 10:52:43.040, 0.7149, 0.6201,-0.8744, 0.5346,-0.2249,-0.1847, 0.7486,-0.6159,-0.7923
09-Sep-2020 10:52:43.050, 0.7120, 0.5878,-0.8067, 0.6175,-0.1925,-0.1662, 0.7429,-0.6132,-0.7983
09-Sep-2020 10:52:43.060, 0.7166, 0.5512,-0.7520, 0.6648,-0.1441,-0.1348, 0.7373,-0.6097,-0.8048
09-Sep-2020 10:52:43.070, 0.7193, 0.5224,-0.7137, 0.6667,-0.0869,-0.0855, 0.7321,-0.6056,-0.8113
09-Sep-2020 10:52:43.080, 0.7200, 0.5120,-0.6844, 0.6313,-0.0438,-0.0358, 0.7278,-0.6012,-0.8174
09-Sep-2020 10:52:43.090, 0.7162, 0.5296,-0.6799, 0.5943,-0.0290,-0.0230, 0.7243,-0.5967,-0.8227
09-Sep-2020 10:52:43.100, 0.7074, 0.5723,-0.6919, 0.5795,-0.0027,-0.0494, 0.7213,-0.5923,-0.8277
09-Sep-2020 10:52:43.110, 0.7115, 0.6293,-0.7066, 0.6107, 0.0263,-0.0866, 0.7184,-0.5882,-0.8327
09-Sep-2020 10:52:43.119, 0.7298, 0.6739,-0.7296, 0.7020, 0.0608,-0.1068, 0.7156,-0.5841,-0.8382
09-Sep-2020 10:52:43.129, 0.7544, 0.6842,-0.7473, 0.8257, 0.1231,-0.0818, 0.7127,-0.5794,-0.8446
09-Sep-2020 10:52:43.139, 0.7796, 0.6786,-0.7384, 0.9350, 0.2296,-0.0130, 0.7101,-0.5736,-0.8517
09-Sep-2020 10:52:43.149, 0.8112, 0.6707,-0.6985, 0.9993, 0.3334, 0.1102, 0.7085,-0.5666,-0.8589
09-Sep-2020 10:52:43.159, 0.8279, 0.6571,-0.6711, 1.0339, 0.3832, 0.2493, 0.7082,-0.5582,-0.8655
09-Sep-2020 10:52:43.169, 0.8458, 0.6392,-0.6569, 1.0442, 0.3791, 0.3966, 0.7091,-0.5487,-0.8711
09-Sep-2020 10:52:43.179, 0.8597, 0.6225,-0.6460, 1.0278, 0.2925, 0.5303, 0.7105,-0.5382,-0.8755
09-Sep-2020 10:52:43.189, 0.8552, 0.6170,-0.6423, 1.0016, 0.1313, 0.6330, 0.7118,-0.5270,-0.8785
09-Sep-2020 10:52:43.199, 0.8395, 0.6127,-0.6435, 0.9596,-0.0603, 0.7125, 0.7121,-0.5153,-0.8805
09-Sep-2020 10:52:43.209, 0.8081, 0.6027,-0.6430, 0.9200,-0.2462, 0.7451, 0.7110,-0.5033,-0.8815
09-Sep-2020 10:52:43.219, 0.7633, 0.5972,-0.6306, 0.8851,-0.3883, 0.7554, 0.7084,-0.4915,-0.8819
09-Sep-2020 10:52:43.229, 0.7227, 0.5862,-0.6197, 0.8851,-0.3883, 0.7554, 0.7046,-0.4798,-0.8819
09-Sep-2020 10:52:43.239, 0.6759, 0.5711,-0.6167, 0.8490,-0.3976, 0.7576, 0.7002,-0.4683,-0.8816
09-Sep-2020 10:52:43.249, 0.6291, 0.5712,-0.6055, 0.8536,-0.2382, 0.7420, 0.6965,-0.4569,-0.8812
09-Sep-2020 10:52:43.259, 0.5826, 0.5663,-0.6032, 0.8864, 0.0220, 0.7262, 0.6943,-0.4456,-0.8809
09-Sep-2020 10:52:43.269, 0.5544, 0.5403,-0.6089, 0.9225, 0.2226, 0.7041, 0.6944,-0.4341,-0.8810
09-Sep-2020 10:52:43.279, 0.5572, 0.5149,-0.6521, 0.9332, 0.3412, 0.6807, 0.6964,-0.4225,-0.8815
09-Sep-2020 10:52:43.289, 0.5862, 0.5003,-0.6833, 0.9152, 0.3898, 0.6631, 0.6994,-0.4110,-0.8823
09-Sep-2020 10:52:43.299, 0.6115, 0.4841,-0.7204, 0.9084, 0.3725, 0.6282, 0.7029,-0.3997,-0.8832
09-Sep-2020 10:52:43.309, 0.6197, 0.4824,-0.7543, 0.9336, 0.3449, 0.5711, 0.7061,-0.3887,-0.8844
09-Sep-2020 10:52:43.319, 0.6359, 0.4678,-0.7560, 0.9571, 0.3519, 0.5331, 0.7089,-0.3778,-0.8862
09-Sep-2020 10:52:43.329, 0.6418, 0.4572,-0.7658, 1.0122, 0.2880, 0.5029, 0.7115,-0.3670,-0.8885
09-Sep-2020 10:52:43.339, 0.6245, 0.4663,-0.8357, 1.1210, 0.2615, 0.4756, 0.7133,-0.3560,-0.8915
09-Sep-2020 10:52:43.349, 0.6125, 0.4529,-0.8500, 1.2381, 0.4099, 0.4805, 0.7147,-0.3444,-0.8954
09-Sep-2020 10:52:43.359, 0.5895, 0.4145,-0.8351, 1.3419, 0.5478, 0.4816, 0.7172,-0.3319,-0.9001
09-Sep-2020 10:52:43.368, 0.5561, 0.3872,-0.8578, 1.3994, 0.5811, 0.4368, 0.7208,-0.3187,-0.9056
09-Sep-2020 10:52:43.379, 0.5481, 0.3645,-0.8739, 1.3849, 0.6459, 0.3392, 0.7247,-0.3053,-0.9118
09-Sep-2020 10:52:43.389, 0.5134, 0.3348,-0.8414, 1.3172, 0.7555, 0.1922, 0.7291,-0.2927,-0.9187
09-Sep-2020 10:52:43.398, 0.4755, 0.3129,-0.7851, 1.2749, 0.8858, 0.0522, 0.7344,-0.2816,-0.9263
09-Sep-2020 10:52:43.408, 0.5070, 0.2775,-0.7656, 1.2682, 1.0025,-0.0310, 0.7409,-0.2717,-0.9347
09-Sep-2020 10:52:43.418, 0.5914, 0.2445,-0.7550, 1.2039, 1.1893,-0.0335, 0.7486,-0.2626,-0.9437
09-Sep-2020 10:52:43.428, 0.6530, 0.1984,-0.6933, 1.0869, 1.2426, 0.0280, 0.7581,-0.2540,-0.9524
09-Sep-2020 10:52:43.438, 0.6979, 0.1936,-0.7126, 0.9799, 1.0332, 0.1112, 0.7684,-0.2459,-0.9598
09-Sep-2020 10:52:43.448, 0.7286, 0.1971,-0.7511, 0.8328, 0.9311, 0.1684, 0.7773,-0.2381,-0.9660
09-Sep-2020 10:52:43.458, 0.7126, 0.1810,-0.6251, 0.7003, 1.0205, 0.1932, 0.7856,-0.2309,-0.9708
09-Sep-2020 10:52:43.468, 0.6355, 0.1909,-0.5156, 0.7586, 0.9913, 0.2482, 0.7949,-0.2245,-0.9744
09-Sep-2020 10:52:43.478, 0.5221, 0.3117,-0.6475, 0.8062, 1.1693, 0.0019, 0.8043,-0.2177,-0.9784
09-Sep-2020 10:52:43.488, 0.3629, 0.2607,-0.4553, 0.6925, 1.5030,-0.2151, 0.8147,-0.2121,-0.9842
09-Sep-2020 10:52:43.498, 0.3586, 0.2368,-0.3617, 0.4249, 1.9274,-0.4414, 0.8284,-0.2090,-0.9907
09-Sep-2020 10:52:43.508, 0.3815, 0.1652,-0.1758, 0.1167, 2.0888,-0.4781, 0.8462,-0.2093,-0.9968
09-Sep-2020 10:52:43.518, 0.5947, 0.1808,-0.2876, 0.0631, 1.9293,-0.5135, 0.8658,-0.2119,-1.0010
09-Sep-2020 10:52:43.528, 0.6675, 0.2064,-0.4598, 0.0631, 1.9293,-0.5135, 0.8844,-0.2154,-1.0049
09-Sep-2020 10:52:43.537, 0.7417, 0.1710,-0.4858, 0.0717, 2.0534,-0.6833, 0.9034,-0.2198,-1.0093
09-Sep-2020 10:52:43.547, 0.8159, 0.1769,-0.5875, 0.0967, 1.9671,-0.5954, 0.9227,-0.2246,-1.0141
09-Sep-2020 10:52:43.558, 0.8347, 0.1704,-0.6327, 0.0885, 1.7952,-0.4755, 0.9412,-0.2287,-1.0184
09-Sep-2020 10:52:43.567, 0.7953, 0.1628,-0.6201, 0.0566, 1.6577,-0.4858, 0.9583,-0.2320,-1.0220
09-Sep-2020 10:52:43.577, 0.6703, 0.1666,-0.5697,-0.0130, 1.5672,-0.6900, 0.9740,-0.2357,-1.0254
09-Sep-2020 10:52:43.587, 0.5415, 0.1680,-0.4923,-0.0929, 1.4310,-0.9664, 0.9886,-0.2415,-1.0292
09-Sep-2020 10:52:43.597, 0.5022, 0.1804,-0.4305,-0.1534, 1.3571,-1.2188, 1.0018,-0.2500,-1.0338
09-Sep-2020 10:52:43.607, 0.5422, 0.1785,-0.3945,-0.1534, 1.3571,-1.2188, 1.0140,-0.2609,-1.0391
09-Sep-2020 10:52:43.617, 0.6887, 0.1442,-0.4120,-0.2583, 1.2988,-1.1965, 1.0261,-0.2729,-1.0444
09-Sep-2020 10:52:43.627, 0.8506, 0.0879,-0.4357,-0.3919, 1.0931,-0.9377, 1.0379,-0.2843,-1.0484
09-Sep-2020 10:52:43.637, 0.9130, 0.0502,-0.4262,-0.5829, 0.7757,-0.7085, 1.0483,-0.2943,-1.0497
09-Sep-2020 10:52:43.647, 0.8972, 0.0713,-0.3937,-0.5829, 0.7757,-0.7085, 1.0564,-0.3032,-1.0481
09-Sep-2020 10:52:43.657, 0.8212, 0.1358,-0.3746,-0.9904, 0.0300,-0.6119, 1.0616,-0.3122,-1.0439
09-Sep-2020 10:52:43.667, 0.7238, 0.2277,-0.3484,-1.1302,-0.1898,-0.7259, 1.0638,-0.3223,-1.0381
09-Sep-2020 10:52:43.677, 0.6771, 0.3120,-0.3202,-1.2245,-0.2671,-0.8153, 1.0641,-0.3340,-1.0314
09-Sep-2020 10:52:43.687, 0.6834, 0.3651,-0.3095,-1.2934,-0.2533,-0.8560, 1.0639,-0.3469,-1.0243
09-Sep-2020 10:52:43.697, 0.7014, 0.4047,-0.3233,-1.2987,-0.1462,-0.9428, 1.0640,-0.3605,-1.0167
09-Sep-2020 10:52:43.707, 0.6832, 0.4403,-0.3835,-1.2385, 0.0129,-1.0312, 1.0652,-0.3748,-1.0095
09-Sep-2020 10:52:43.717, 0.7904, 0.4688,-0.4720,-1.1352, 0.0149,-1.0116, 1.0675,-0.3896,-1.0032
09-Sep-2020 10:52:43.727, 0.9443, 0.4621,-0.5357,-1.0171,-0.0366,-0.8817, 1.0697,-0.4037,-0.9977
09-Sep-2020 10:52:43.737, 0.9855, 0.4500,-0.5059,-0.9757,-0.1202,-0.8156, 1.0714,-0.4163,-0.9926
09-Sep-2020 10:52:43.746, 0.9469, 0.4419,-0.4677,-0.9757,-0.1202,-0.8156, 1.0722,-0.4280,-0.9875
09-Sep-2020 10:52:43.756, 0.8788, 0.4362,-0.4508,-0.9958,-0.4995,-0.8923, 1.0715,-0.4394,-0.9822
09-Sep-2020 10:52:43.766, 0.7491, 0.4193,-0.4558,-1.0229,-0.7969,-1.1402, 1.0685,-0.4520,-0.9773
09-Sep-2020 10:52:43.776, 0.6414, 0.4298,-0.4306,-1.1072,-1.0597,-1.3148, 1.0624,-0.4667,-0.9734
09-Sep-2020 10:52:43.786, 0.6151, 0.4704,-0.4100,-1.1608,-1.2971,-1.5685, 1.0535,-0.4835,-0.9698
09-Sep-2020 10:52:43.796, 0.4090, 0.5056,-0.4128,-1.2435,-1.2684,-1.9684, 1.0419,-0.5028,-0.9674
09-Sep-2020 10:52:43.806, 0.3550, 0.5597,-0.3191,-1.3300,-1.1179,-2.2661, 1.0298,-0.5258,-0.9666
09-Sep-2020 10:52:43.816, 0.4187, 0.5694,-0.3534,-1.3005,-1.0838,-2.4292, 1.0183,-0.5518,-0.9671
09-Sep-2020 10:52:43.826, 0.4424, 0.5618,-0.4740,-1.1781,-0.9655,-2.4016, 1.0064,-0.5789,-0.9692
09-Sep-2020 10:52:43.836, 0.4668, 0.5565,-0.5583,-1.0145,-0.7611,-2.2426, 0.9948,-0.6052,-0.9728
09-Sep-2020 10:52:43.846, 0.4172, 0.5627,-0.6476,-0.8046,-0.6564,-2.0887, 0.9844,-0.6293,-0.9775
09-Sep-2020 10:52:43.856, 0.3088, 0.4946,-0.7281,-0.6169,-0.2438,-2.0250, 0.9744,-0.6510,-0.9837
09-Sep-2020 10:52:43.866, 0.1691, 0.4737,-0.4623,-0.6321, 0.2653,-1.9678, 0.9672,-0.6711,-0.9915
09-Sep-2020 10:52:43.876, 0.2149, 0.5231,-0.3449,-0.6431, 0.2948,-1.9058, 0.9647,-0.6907,-0.9992
09-Sep-2020 10:52:43.886, 0.4397, 0.5724,-0.5211,-0.7190, 0.1617,-1.8959, 0.9629,-0.7099,-1.0065
09-Sep-2020 10:52:43.896, 0.5296, 0.6094,-0.4971,-0.8306, 0.0066,-1.9651, 0.9601,-0.7294,-1.0130
09-Sep-2020 10:52:43.906, 0.6031, 0.5751,-0.3410,-1.0090,-0.1565,-1.8944, 0.9562,-0.7500,-1.0189
09-Sep-2020 10:52:43.916, 0.7205, 0.5094,-0.1771,-1.2793,-0.3842,-1.7464, 0.9521,-0.7711,-1.0226
09-Sep-2020 10:52:43.926, 0.8139, 0.5107,-0.0715,-1.5555,-0.5586,-1.6460, 0.9486,-0.7926,-1.0222
09-Sep-2020 10:52:43.936, 0.8491, 0.6075,-0.0444,-1.7475,-0.6001,-1.6298, 0.9462,-0.8149,-1.0179
09-Sep-2020 10:52:43.945, 0.8617, 0.7499,-0.0333,-1.9185,-0.7501,-1.6937, 0.9451,-0.8382,-1.0111
09-Sep-2020 10:52:43.955, 0.8314, 0.8394,-0.1142,-1.9612,-1.2574,-1.7772, 0.9437,-0.8629,-1.0028
09-Sep-2020 10:52:43.965, 0.7351, 0.8467,-0.3432,-1.7562,-2.0109,-1.8307, 0.9373,-0.8885,-0.9946
09-Sep-2020 10:52:43.975, 0.7200, 0.8430,-0.6564,-1.3388,-2.5180,-1.7469, 0.9214,-0.9133,-0.9896
09-Sep-2020 10:52:43.985, 0.6585, 0.8593,-0.6530,-0.8678,-2.3216,-1.4655, 0.8966,-0.9350,-0.9897
09-Sep-2020 10:52:43.995, 0.6424, 0.8927,-0.5806,-0.4290,-1.5988,-1.0448, 0.8703,-0.9516,-0.9940
09-Sep-2020 10:52:44.005, 0.6103, 0.9915,-0.4817,-0.1925,-0.5985,-0.6715, 0.8497,-0.9623,-1.0000
09-Sep-2020 10:52:44.015, 0.5633, 1.1005,-0.3546,-0.1783, 0.3378,-0.4220, 0.8395,-0.9686,-1.0051
09-Sep-2020 10:52:44.025, 0.5252, 1.1062,-0.3591,-0.1850, 0.6862,-0.2824, 0.8403,-0.9729,-1.0078
09-Sep-2020 10:52:44.035, 0.4754, 0.9700,-0.5012,-0.2079, 0.5830,-0.1953, 0.8461,-0.9762,-1.0086
09-Sep-2020 10:52:44.045, 0.5027, 0.9744,-0.4436,-0.2659, 0.4719,-0.1660, 0.8523,-0.9790,-1.0082
09-Sep-2020 10:52:44.055, 0.5325, 0.9535,-0.4000,-0.3230, 0.4692,-0.2313, 0.8584,-0.9819,-1.0066
09-Sep-2020 10:52:44.065, 0.5059, 0.9124,-0.3941,-0.4473, 0.5228,-0.3120, 0.8645,-0.9857,-1.0048
09-Sep-2020 10:52:44.075, 0.5152, 0.8855,-0.3949,-0.6336, 0.5621,-0.3577, 0.8719,-0.9909,-1.0021
09-Sep-2020 10:52:44.085, 0.5081, 0.8718,-0.4230,-0.8271, 0.5803,-0.3585, 0.8815,-0.9976,-0.9974
09-Sep-2020 10:52:44.095, 0.4848, 0.8656,-0.4638,-1.0171, 0.5014,-0.3502, 0.8936,-1.0055,-0.9897
09-Sep-2020 10:52:44.105, 0.4352, 0.8599,-0.4427,-1.2269, 0.4562,-0.3630, 0.9078,-1.0144,-0.9788
09-Sep-2020 10:52:44.115, 0.3660, 0.8255,-0.3586,-1.3744, 0.4363,-0.3582, 0.9245,-1.0246,-0.9646
09-Sep-2020 10:52:44.125, 0.3587, 0.8427,-0.3135,-1.3744, 0.4363,-0.3582, 0.9438,-1.0355,-0.9472
09-Sep-2020 10:52:44.135, 0.3721, 0.8646,-0.2919,-1.5001, 0.4525,-0.2370, 0.9666,-1.0459,-0.9258
09-Sep-2020 10:52:44.145, 0.3310, 0.8824,-0.2993,-1.6311, 0.4485,-0.0842, 0.9919,-1.0558,-0.9014
09-Sep-2020 10:52:44.155, 0.3188, 0.8710,-0.2936,-1.6899, 0.5884,-0.0214, 1.0201,-1.0651,-0.8743
09-Sep-2020 10:52:44.165, 0.3134, 0.8698,-0.2999,-1.7775, 0.9700, 0.0834, 1.0525,-1.0737,-0.8443
09-Sep-2020 10:52:44.175, 0.3119, 0.8368,-0.2581,-1.9644, 1.4123, 0.2446, 1.0920,-1.0814,-0.8104
09-Sep-2020 10:52:44.185, 0.3607, 0.7996,-0.1771,-2.2236, 1.7460, 0.3924, 1.1413,-1.0877,-0.7705
09-Sep-2020 10:52:44.194, 0.3850, 0.7678,-0.1054,-2.5759, 1.9923, 0.5600, 1.2006,-1.0927,-0.7231
09-Sep-2020 10:52:44.204, 0.3712, 0.7267, 0.1109,-2.9009, 1.9012, 0.6999, 1.2708,-1.0957,-0.6662
09-Sep-2020 10:52:44.214, 0.2978, 0.6414, 0.0462,-3.0865, 1.7628, 0.7617, 1.3476,-1.0964,-0.6013
09-Sep-2020 10:52:44.225, 0.2689, 0.5676, 0.0900,-2.9218, 1.3302, 0.8141, 1.4257,-1.0944,-0.5329
09-Sep-2020 10:52:44.234, 0.2992, 0.5815,-0.0777,-2.3907, 0.7799, 0.9005, 1.4958,-1.0895,-0.4688
09-Sep-2020 10:52:44.245, 0.3329, 0.6335,-0.1494,-1.5663, 0.4739, 1.0948, 1.5492,-1.0815,-0.4174
09-Sep-2020 10:52:44.254, 0.3067, 0.7064,-0.1058,-0.7165, 0.7133, 1.2610, 1.5832,-1.0706,-0.3845
09-Sep-2020 10:52:44.264, 0.1783, 0.7990, 0.1457, 0.0094, 1.3517, 1.3394, 1.6031,-1.0579,-0.3703
09-Sep-2020 10:52:44.274, 0.1462, 0.7967, 0.2453, 0.6136, 1.3450, 1.2922, 1.6151,-1.0446,-0.3714
09-Sep-2020 10:52:44.284, 0.1668, 0.7859, 0.1025, 1.0939, 0.8541, 1.0574, 1.6169,-1.0321,-0.3845
09-Sep-2020 10:52:44.294, 0.1873, 0.7259,-0.0011, 1.2838, 0.3006, 0.8277, 1.6068,-1.0220,-0.4061
09-Sep-2020 10:52:44.304, 0.2818, 0.6910, 0.0401, 1.1662,-0.0078, 0.6198, 1.5892,-1.0140,-0.4305
09-Sep-2020 10:52:44.314, 0.3929, 0.7928, 0.0581, 0.8757,-0.3694, 0.3793, 1.5706,-1.0079,-0.4523
09-Sep-2020 10:52:44.324, 0.5614, 0.9896,-0.1545, 0.6152,-1.0547,-0.0450, 1.5528,-1.0041,-0.4687
09-Sep-2020 10:52:44.334, 0.7325, 1.2808,-0.2242, 0.2451,-1.2504,-0.7331, 1.5331,-1.0045,-0.4800
09-Sep-2020 10:52:44.344, 0.8432, 1.5271,-0.0781,-0.0574,-0.9685,-1.6471, 1.5164,-1.0117,-0.4854
09-Sep-2020 10:52:44.354, 0.8770, 1.5086,-0.1324,-0.1581,-1.0231,-2.2884, 1.5055,-1.0279,-0.4865
09-Sep-2020 10:52:44.364, 0.8311, 0.9962,-0.2441,-0.2270,-1.0006,-2.3801, 1.4954,-1.0503,-0.4865
09-Sep-2020 10:52:44.374, 0.8359, 0.8725, 0.0356,-0.2534,-0.5076,-2.1779, 1.4863,-1.0739,-0.4858
09-Sep-2020 10:52:44.383, 0.7753, 0.9184, 0.1276,-0.1712,-0.1852,-1.8489, 1.4820,-1.0955,-0.4848
09-Sep-2020 10:52:44.393, 0.6951, 0.8906, 0.1091,-0.0713, 0.0612,-1.3914, 1.4802,-1.1138,-0.4847
09-Sep-2020 10:52:44.403, 0.6382, 0.8531, 0.0778,-0.0105, 0.2584,-0.9817, 1.4796,-1.1276,-0.4860
09-Sep-2020 10:52:44.413, 0.6175, 0.7867, 0.1242,-0.1605, 0.5325,-0.8050, 1.4808,-1.1375,-0.4876
09-Sep-2020 10:52:44.424, 0.5863, 0.7787, 0.1553,-0.3139, 0.6096,-0.6345, 1.4878,-1.1455,-0.4855
09-Sep-2020 10:52:44.433, 0.5470, 0.7981, 0.0116,-0.3748, 0.4638,-0.4812, 1.4994,-1.1520,-0.4793
09-Sep-2020 10:52:44.443, 0.4971, 0.8301,-0.0845,-0.3697, 0.2444,-0.4070, 1.5114,-1.1570,-0.4711
09-Sep-2020 10:52:44.453, 0.4108, 0.8561,-0.0789,-0.4039, 0.1893,-0.3802, 1.5220,-1.1612,-0.4624
09-Sep-2020 10:52:44.463, 0.3338, 0.8588,-0.0358,-0.3621, 0.0380,-0.3064, 1.5325,-1.1650,-0.4529
09-Sep-2020 10:52:44.473, 0.3057, 0.8762,-0.1279,-0.2193,-0.1008,-0.3143, 1.5409,-1.1682,-0.4442
09-Sep-2020 10:52:44.483, 0.2307, 0.9646,-0.1301,-0.0839,-0.0846,-0.4243, 1.5448,-1.1713,-0.4389
09-Sep-2020 10:52:44.493, 0.2441, 1.0439,-0.1104, 0.0375, 0.0792,-0.5644, 1.5457,-1.1755,-0.4371
09-Sep-2020 10:52:44.503, 0.2646, 1.0714,-0.0756, 0.1018, 0.3048,-0.7263, 1.5453,-1.1811,-0.4385
09-Sep-2020 10:52:44.513, 0.2887, 0.9761,-0.0516, 0.0845, 0.4718,-0.8465, 1.5454,-1.1882,-0.4416
09-Sep-2020 10:52:44.523, 0.3517, 0.8698,-0.0588,-0.0308, 0.5501,-0.8795, 1.5475,-1.1964,-0.4444
09-Sep-2020 10:52:44.533, 0.3717, 0.8006,-0.0598,-0.2002, 0.5452,-0.8473, 1.5532,-1.2051,-0.4440
09-Sep-2020 10:52:44.543, 0.3537, 0.7944,-0.0305,-0.3345, 0.5044,-0.8131, 1.5635,-1.2134,-0.4388
09-Sep-2020 10:52:44.553, 0.3475, 0.8464, 0.0050,-0.4792, 0.4307,-0.7800, 1.5774,-1.2214,-0.4293
09-Sep-2020 10:52:44.562, 0.3625, 0.8851, 0.0809,-0.6181, 0.3257,-0.7604, 1.5952,-1.2291,-0.4149
09-Sep-2020 10:52:44.572, 0.3673, 0.8886, 0.0911,-0.6920, 0.2744,-0.7780, 1.6164,-1.2364,-0.3959
09-Sep-2020 10:52:44.582, 0.3184, 0.8829, 0.0636,-0.6962, 0.2475,-0.7831, 1.6403,-1.2437,-0.3736
09-Sep-2020 10:52:44.593, 0.2734, 0.8930, 0.0225,-0.6120, 0.2343,-0.7399, 1.6649,-1.2508,-0.3502
09-Sep-2020 10:52:44.602, 0.2796, 0.9375,-0.0108,-0.4877, 0.1952,-0.6858, 1.6879,-1.2574,-0.3284
09-Sep-2020 10:52:44.612, 0.2486, 0.9899,-0.0165,-0.3394, 0.2098,-0.6505, 1.7074,-1.2635,-0.3100
09-Sep-2020 10:52:44.622, 0.2171, 1.0117,-0.0025,-0.2026, 0.2554,-0.6486, 1.7230,-1.2694,-0.2959
09-Sep-2020 10:52:44.634, 0.2110, 1.0467, 0.0026,-0.1127, 0.2960,-0.7231, 1.7352,-1.2754,-0.2857
09-Sep-2020 10:52:44.646, 0.1958, 1.0606, 0.0385,-0.1182, 0.3882,-0.8154, 1.7459,-1.2822,-0.2776
09-Sep-2020 10:52:44.652, 0.1678, 1.0327, 0.0940,-0.1495, 0.4811,-0.8804, 1.7585,-1.2899,-0.2685
09-Sep-2020 10:52:44.662, 0.1456, 1.0256, 0.1292,-0.2120, 0.5623,-0.9090, 1.7743,-1.2981,-0.2570
09-Sep-2020 10:52:44.672, 0.1922, 1.0008, 0.1114,-0.3688, 0.6200,-0.8722, 1.7944,-1.3064,-0.2420
09-Sep-2020 10:52:44.682, 0.2493, 0.9710, 0.1289,-0.5510, 0.6699,-0.7944, 1.8213,-1.3139,-0.2204
09-Sep-2020 10:52:44.692, 0.2523, 0.9403, 0.1733,-0.7279, 0.7277,-0.7273, 1.8562,-1.3200,-0.1913
09-Sep-2020 10:52:44.702, 0.2181, 0.9989, 0.1862,-0.6526, 0.8409,-0.6878, 1.8982,-1.3247,-0.1554
09-Sep-2020 10:52:44.712, 0.1770, 1.0956, 0.1985,-0.6519, 1.2508,-0.7333, 1.9418,-1.3290,-0.1196
09-Sep-2020 10:52:44.722, 0.1667, 1.0825, 0.1120,-0.4267, 1.4684,-0.5846, 1.9888,-1.3331,-0.0839
09-Sep-2020 10:52:44.732, 0.1924, 0.9778, 0.0465,-0.2233, 1.5624,-0.4632, 2.0307,-1.3365,-0.0560
09-Sep-2020 10:52:44.742, 0.1633, 1.0410,-0.1232, 0.0134, 1.3258,-0.3958, 2.0640,-1.3395,-0.0379
09-Sep-2020 10:52:44.752, 0.1323, 1.0508,-0.1178, 0.1924, 0.8986,-0.3751, 2.0846,-1.3429,-0.0302
09-Sep-2020 10:52:44.762, 0.1455, 1.0111,-0.1232, 0.2123, 0.4451,-0.3419, 2.0944,-1.3470,-0.0293
09-Sep-2020 10:52:44.772, 0.1767, 0.9665,-0.0349, 0.1202, 0.0694,-0.2561, 2.0982,-1.3510,-0.0300
09-Sep-2020 10:52:44.781, 0.2222, 0.9566, 0.0287, 0.0384,-0.1641,-0.1347, 2.0997,-1.3537,-0.0292
09-Sep-2020 10:52:44.792, 0.2889, 0.9921, 0.0529, 0.0777,-0.1831,-0.0219, 2.0992,-1.3550,-0.0282
09-Sep-2020 10:52:44.802, 0.3403, 1.0337, 0.0331, 0.2459,-0.1421, 0.1068, 2.0942,-1.3556,-0.0315
09-Sep-2020 10:52:44.812, 0.3547, 1.0619,-0.0050, 0.4403,-0.1241, 0.2320, 2.0802,-1.3558,-0.0443
09-Sep-2020 10:52:44.821, 0.3109, 1.0563,-0.0006, 0.5943,-0.1534, 0.3086, 2.0561,-1.3559,-0.0677
09-Sep-2020 10:52:44.831, 0.2283, 1.0227, 0.0478, 0.5883,-0.0599, 0.3260, 2.0242,-1.3558,-0.0988
09-Sep-2020 10:52:44.842, 0.1393, 1.0022, 0.2419, 0.5673, 0.0204, 0.2863, 1.9928,-1.3553,-0.1306
09-Sep-2020 10:52:44.851, 0.1066, 0.9610, 0.1951, 0.3408,-0.0894, 0.2595, 1.9650,-1.3548,-0.1595
09-Sep-2020 10:52:44.861, 0.1144, 0.9312, 0.2684, 0.0541,-0.2157, 0.2293, 1.9455,-1.3536,-0.1786
09-Sep-2020 10:52:44.871, 0.1340, 0.9197, 0.2477,-0.1415,-0.3262, 0.2386, 1.9368,-1.3516,-0.1854
09-Sep-2020 10:52:44.881, 0.1427, 0.8750, 0.1789,-0.2632,-0.3773, 0.2571, 1.9353,-1.3489,-0.1836
09-Sep-2020 10:52:44.891, 0.1272, 0.8203, 0.1530,-0.3540,-0.3623, 0.2613, 1.9382,-1.3455,-0.1769
09-Sep-2020 10:52:44.901, 0.1183, 0.7565, 0.1414,-0.4159,-0.3544, 0.2585, 1.9444,-1.3417,-0.1668
09-Sep-2020 10:52:44.911, 0.1169, 0.6892, 0.1144,-0.4580,-0.3714, 0.2424, 1.9529,-1.3378,-0.1544
09-Sep-2020 10:52:44.921, 0.1009, 0.6391, 0.0945,-0.4500,-0.4176, 0.1760, 1.9628,-1.3338,-0.1405
09-Sep-2020 10:52:44.931, 0.0742, 0.5736, 0.1122,-0.4767,-0.4191,-0.0133, 1.9731,-1.3305,-0.1258
09-Sep-2020 10:52:44.941, 0.0223, 0.5078, 0.1453,-0.5250,-0.6262,-0.3311, 1.9867,-1.3287,-0.1074
09-Sep-2020 10:52:44.950,-0.0178, 0.4373, 0.1189,-0.5584,-0.7974,-0.5986, 2.0050,-1.3295,-0.0821
09-Sep-2020 10:52:44.961,-0.0236, 0.3814, 0.1786,-0.5594,-0.8125,-0.6802, 2.0276,-1.3323,-0.0508
09-Sep-2020 10:52:44.971,-0.0453, 0.4273, 0.2425,-0.5765,-0.7185,-0.6197, 2.0527,-1.3357,-0.0167
09-Sep-2020 10:52:44.981, 0.0337, 0.6138, 0.2187,-0.6400,-0.5313,-0.3530, 2.0789,-1.3382, 0.0174
09-Sep-2020 10:52:44.991, 0.1131, 0.7953, 0.1935,-0.7785,-0.3438, 0.1062, 2.1044,-1.3379, 0.0487
09-Sep-2020 10:52:45.000, 0.2382, 0.9142, 0.1504,-1.1415,-0.1638, 1.0032, 2.1259,-1.3327, 0.0745
09-Sep-2020 10:52:45.010, 0.5688, 1.6059, 0.3003,-1.6745,-0.1056, 2.2997, 2.1404,-1.3181, 0.0911
09-Sep-2020 10:52:45.020, 0.8209, 2.5203, 0.2531,-2.4641,-0.4501, 3.5134, 2.1461,-1.2897, 0.0978
09-Sep-2020 10:52:45.030, 0.8168, 2.6953, 0.2274,-2.4811,-1.4374, 3.6173, 2.1461,-1.2479, 0.1028
09-Sep-2020 10:52:45.040, 0.2734, 2.3646,-0.1639,-1.3586,-2.6038, 2.4383, 2.1345,-1.2054, 0.1059
09-Sep-2020 10:52:45.050,-0.0404, 1.8033,-0.2396,-0.3834,-2.4318, 1.1782, 2.1067,-1.1775, 0.1029
09-Sep-2020 10:52:45.060,-0.0223, 1.3304, 0.0610, 0.1857,-1.5190, 0.2611, 2.0769,-1.1650, 0.0964
09-Sep-2020 10:52:45.070, 0.1085, 1.0353, 0.1641, 0.3736,-0.3610,-0.2977, 2.0554,-1.1633, 0.0892
09-Sep-2020 10:52:45.080, 0.2408, 0.8548, 0.2379, 0.2590, 0.5649,-0.5471, 2.0472,-1.1673, 0.0844
09-Sep-2020 10:52:45.090, 0.3808, 0.7682, 0.1775, 0.0725, 0.9902,-0.5738, 2.0529,-1.1731, 0.0848
09-Sep-2020 10:52:45.100, 0.4657, 0.7320, 0.1001,-0.0163, 0.9315,-0.4898, 2.0670,-1.1784, 0.0897
09-Sep-2020 10:52:45.110, 0.4761, 0.6928, 0.0253, 0.0560, 0.5499,-0.3487, 2.0817,-1.1826, 0.0958
09-Sep-2020 10:52:45.120, 0.4549, 0.6558, 0.0126, 0.2172, 0.1218,-0.1753, 2.0898,-1.1859, 0.0987
09-Sep-2020 10:52:45.130, 0.4115, 0.6578, 0.0463, 0.3351,-0.2156,-0.0585, 2.0885,-1.1884, 0.0960
09-Sep-2020 10:52:45.140, 0.3622, 0.7001, 0.0725, 0.3813,-0.4168,-0.0457, 2.0799,-1.1905, 0.0890
09-Sep-2020 10:52:45.150, 0.3102, 0.7514, 0.0896, 0.3571,-0.2088,-0.1528, 2.0681,-1.1928, 0.0806
09-Sep-2020 10:52:45.160, 0.2866, 0.8201, 0.1027, 0.3537, 0.1172,-0.2927, 2.0600,-1.1958, 0.0739
09-Sep-2020 10:52:45.170, 0.2322, 0.7898,-0.0065, 0.4370,-0.1269,-0.3803, 2.0561,-1.2000, 0.0688
09-Sep-2020 10:52:45.180, 0.1968, 0.7881, 0.0197, 0.6165,-0.0448,-0.3622, 2.0492,-1.2053, 0.0625
09-Sep-2020 10:52:45.189, 0.1910, 0.8884, 0.1332, 0.8946, 0.0286,-0.2655, 2.0381,-1.2112, 0.0512
09-Sep-2020 10:52:45.199, 0.2037, 0.9015, 0.1012, 1.0005, 0.0869,-0.1800, 2.0202,-1.2174, 0.0319
09-Sep-2020 10:52:45.209, 0.1955, 1.0091, 0.1570, 0.9559, 0.3597,-0.1507, 1.9987,-1.2232, 0.0080
09-Sep-2020 10:52:45.220, 0.1962, 1.0505, 0.1811, 0.8542, 0.5094,-0.1948, 1.9797,-1.2284,-0.0160
09-Sep-2020 10:52:45.229, 0.1633, 1.0201, 0.1267, 0.7337, 0.3718,-0.3073, 1.9644,-1.2335,-0.0373
09-Sep-2020 10:52:45.239, 0.1233, 1.0855, 0.1254, 0.6168, 0.0801,-0.4459, 1.9518,-1.2390,-0.0545
09-Sep-2020 10:52:45.249, 0.1113, 1.1415, 0.1101, 0.5694,-0.3977,-0.5162, 1.9401,-1.2454,-0.0675
09-Sep-2020 10:52:45.259, 0.1577, 1.1514, 0.0657, 0.5694,-0.3977,-0.5162, 1.9254,-1.2520,-0.0788
09-Sep-2020 10:52:45.269, 0.2009, 1.1125, 0.0930, 0.5128,-1.2010,-0.3672, 1.9051,-1.2583,-0.0909
09-Sep-2020 10:52:45.279, 0.2204, 1.0705, 0.2066, 0.2862,-1.2312,-0.2200, 1.8819,-1.2633,-0.1029
09-Sep-2020 10:52:45.289, 0.2424, 1.0493, 0.2868, 0.0639,-1.1724,-0.1559, 1.8630,-1.2662,-0.1099
09-Sep-2020 10:52:45.299, 0.2532, 1.0523, 0.3076,-0.1248,-1.1273,-0.1237, 1.8505,-1.2678,-0.1107
09-Sep-2020 10:52:45.309, 0.2682, 1.0468, 0.3148,-0.2707,-1.1104,-0.0905, 1.8439,-1.2686,-0.1058
09-Sep-2020 10:52:45.319, 0.2635, 1.0057, 0.3115,-0.3808,-1.1349,-0.0647, 1.8417,-1.2687,-0.0965
09-Sep-2020 10:52:45.329, 0.2355, 0.9720, 0.2846,-0.4860,-1.1020,-0.0625, 1.8425,-1.2683,-0.0839
09-Sep-2020 10:52:45.339, 0.1939, 0.9790, 0.2291,-0.5720,-1.0638,-0.0799, 1.8468,-1.2675,-0.0679
09-Sep-2020 10:52:45.349, 0.1734, 0.9917, 0.1576,-0.6373,-1.0869,-0.1180, 1.8542,-1.2667,-0.0490
09-Sep-2020 10:52:45.359, 0.1600, 0.9951, 0.1073,-0.6602,-1.1884,-0.1395, 1.8634,-1.2659,-0.0279
09-Sep-2020 10:52:45.369, 0.1520, 0.9786, 0.0625,-0.6442,-1.3442,-0.1543, 1.8725,-1.2653,-0.0060
09-Sep-2020 10:52:45.378, 0.1456, 0.9704, 0.0346,-0.6301,-1.5150,-0.1632, 1.8798,-1.2648, 0.0157
09-Sep-2020 10:52:45.389, 0.1473, 0.9701, 0.0257,-0.6350,-1.6392,-0.1913, 1.8850,-1.2643, 0.0370
09-Sep-2020 10:52:45.398, 0.1609, 0.9880, 0.0397,-0.6380,-1.6793,-0.1919, 1.8894,-1.2641, 0.0587
09-Sep-2020 10:52:45.409, 0.1980, 0.9905, 0.0466,-0.6426,-1.6486,-0.1729, 1.8935,-1.2639, 0.0804
09-Sep-2020 10:52:45.419, 0.2163, 0.9767, 0.0683,-0.6277,-1.5855,-0.1674, 1.8977,-1.2634, 0.1020
09-Sep-2020 10:52:45.428, 0.2335, 0.9709, 0.0739,-0.6108,-1.4895,-0.1770, 1.9021,-1.2629, 0.1232
09-Sep-2020 10:52:45.438, 0.2704, 0.9801, 0.0758,-0.5801,-1.3815,-0.1905, 1.9069,-1.2625, 0.1438
09-Sep-2020 10:52:45.448, 0.3031, 0.9902, 0.0663,-0.5429,-1.2703,-0.2040, 1.9120,-1.2624, 0.1636
09-Sep-2020 10:52:45.459, 0.3281, 0.9954, 0.0560,-0.5108,-1.2003,-0.1832, 1.9173,-1.2624, 0.1825
09-Sep-2020 10:52:45.468, 0.3378, 0.9786, 0.0488,-0.4781,-1.1963,-0.1762, 1.9221,-1.2623, 0.2001
09-Sep-2020 10:52:45.478, 0.3345, 0.9585, 0.0527,-0.4720,-1.2192,-0.1881, 1.9259,-1.2623, 0.2166
09-Sep-2020 10:52:45.488, 0.3377, 0.9472, 0.0493,-0.4742,-1.2307,-0.2346, 1.9295,-1.2624, 0.2331
09-Sep-2020 10:52:45.498, 0.3436, 0.9193, 0.0333,-0.4587,-1.2745,-0.2765, 1.9334,-1.2628, 0.2502
09-Sep-2020 10:52:45.509, 0.3477, 0.8891, 0.0235,-0.4475,-1.3386,-0.3011, 1.9371,-1.2637, 0.2673
09-Sep-2020 10:52:45.518, 0.3467, 0.8824, 0.0217,-0.4243,-1.4296,-0.3047, 1.9400,-1.2649, 0.2844
09-Sep-2020 10:52:45.528, 0.3363, 0.8798, 0.0188,-0.3959,-1.5604,-0.2863, 1.9415,-1.2661, 0.3009
09-Sep-2020 10:52:45.538, 0.3186, 0.8856, 0.0363,-0.3677,-1.6072,-0.3217, 1.9409,-1.2673, 0.3164
09-Sep-2020 10:52:45.548, 0.2975, 0.8998, 0.0386,-0.3155,-1.6461,-0.3471, 1.9392,-1.2689, 0.3314
09-Sep-2020 10:52:45.558, 0.3192, 0.9165, 0.0602,-0.3045,-1.5567,-0.3105, 1.9361,-1.2709, 0.3453
09-Sep-2020 10:52:45.568, 0.3608, 0.9394, 0.1006,-0.3329,-1.3877,-0.2434, 1.9333,-1.2726, 0.3586
09-Sep-2020 10:52:45.578, 0.3667, 0.9507, 0.1041,-0.3350,-1.1676,-0.1949, 1.9322,-1.2737, 0.3718
09-Sep-2020 10:52:45.588, 0.3260, 0.9653, 0.0851,-0.2842,-0.9326,-0.2242, 1.9327,-1.2743, 0.3845
09-Sep-2020 10:52:45.598, 0.2806, 0.9809, 0.0810,-0.2205,-0.6738,-0.2912, 1.9345,-1.2754, 0.3960
09-Sep-2020 10:52:45.608, 0.2542, 0.9722, 0.0799,-0.1420,-0.4411,-0.3499, 1.9376,-1.2772, 0.4064
09-Sep-2020 10:52:45.618, 0.2455, 0.9548, 0.0598,-0.0444,-0.3035,-0.3707, 1.9414,-1.2799, 0.4150
09-Sep-2020 10:52:45.628, 0.2504, 0.9564, 0.0526, 0.0507,-0.2888,-0.3663, 1.9440,-1.2831, 0.4209
09-Sep-2020 10:52:45.638, 0.2618, 0.9640, 0.0501, 0.1061,-0.3607,-0.3453, 1.9439,-1.2866, 0.4239
09-Sep-2020 10:52:45.648, 0.2825, 0.9488, 0.0601, 0.1216,-0.3985,-0.3070, 1.9410,-1.2902, 0.4246
09-Sep-2020 10:52:45.657, 0.3161, 0.9442, 0.0846, 0.1034,-0.3356,-0.2462, 1.9369,-1.2934, 0.4244
09-Sep-2020 10:52:45.667, 0.3526, 0.9523, 0.0966, 0.1027,-0.1238,-0.1739, 1.9330,-1.2960, 0.4237
09-Sep-2020 10:52:45.677, 0.3747, 0.9478, 0.1022, 0.1197, 0.1134,-0.1327, 1.9304,-1.2979, 0.4223
09-Sep-2020 10:52:45.687, 0.3876, 0.9346, 0.0879, 0.1285, 0.3116,-0.1032, 1.9290,-1.2995, 0.4196
09-Sep-2020 10:52:45.697, 0.3917, 0.9075, 0.1016, 0.1300, 0.4430,-0.1235, 1.9288,-1.3009, 0.4163
09-Sep-2020 10:52:45.707, 0.3810, 0.8940, 0.1038, 0.1222, 0.5023,-0.1571, 1.9302,-1.3025, 0.4132
09-Sep-2020 10:52:45.717, 0.3951, 0.8967, 0.1030, 0.1212, 0.5526,-0.1443, 1.9327,-1.3043, 0.4107
09-Sep-2020 10:52:45.727, 0.4190, 0.9122, 0.1053, 0.1126, 0.6032,-0.0840, 1.9357,-1.3059, 0.4081
09-Sep-2020 10:52:45.737, 0.4288, 0.9230, 0.1098, 0.0849, 0.6146,-0.0129, 1.9387,-1.3071, 0.4050
09-Sep-2020 10:52:45.747, 0.3924, 0.9225, 0.1163, 0.0475, 0.6234, 0.0562, 1.9419,-1.3074, 0.4020
09-Sep-2020 10:52:45.757, 0.3205, 0.9294, 0.1098, 0.0394, 0.6274, 0.1022, 1.9454,-1.3070, 0.3992
09-Sep-2020 10:52:45.767, 0.2609, 0.9384, 0.0865, 0.0647, 0.6222, 0.1012, 1.9486,-1.3062, 0.3960
09-Sep-2020 10:52:45.777, 0.2259, 0.9455, 0.0739, 0.0994, 0.5950, 0.0800, 1.9509,-1.3055, 0.3921
09-Sep-2020 10:52:45.787, 0.2107, 0.9573, 0.0753, 0.1219, 0.5356, 0.0674, 1.9522,-1.3051, 0.3873
09-Sep-2020 10:52:45.797, 0.2038, 0.9696, 0.0807, 0.1203, 0.4331, 0.0760, 1.9522,-1.3048, 0.3818
09-Sep-2020 10:52:45.807, 0.1990, 0.9731, 0.0869, 0.1068, 0.3140, 0.1006, 1.9512,-1.3045, 0.3763
09-Sep-2020 10:52:45.817, 0.1955, 0.9886, 0.0907, 0.1042, 0.1883, 0.1080, 1.9491,-1.3039, 0.3709
09-Sep-2020 10:52:45.826, 0.1801, 1.0028, 0.0860, 0.1022, 0.0246, 0.1156, 1.9457,-1.3033, 0.3655
09-Sep-2020 10:52:45.836, 0.1788, 1.0099, 0.0964, 0.0807,-0.1410, 0.1094, 1.9408,-1.3025, 0.3602
09-Sep-2020 10:52:45.846, 0.1825, 1.0051, 0.1068, 0.0545,-0.2982, 0.1072, 1.9351,-1.3017, 0.3557
09-Sep-2020 10:52:45.856, 0.1958, 0.9765, 0.1084, 0.0344,-0.4333, 0.1150, 1.9286,-1.3009, 0.3521
09-Sep-2020 10:52:45.866, 0.2116, 0.9597, 0.1035, 0.0242,-0.5124, 0.1433, 1.9215,-1.2999, 0.3492
09-Sep-2020 10:52:45.877, 0.2488, 0.9616, 0.1037, 0.0255,-0.4632, 0.2040, 1.9137,-1.2985, 0.3463
09-Sep-2020 10:52:45.886, 0.2670, 0.9651, 0.1075, 0.0421,-0.2992, 0.2197, 1.9058,-1.2967, 0.3428
09-Sep-2020 10:52:45.896, 0.2405, 0.9507, 0.1057, 0.0705,-0.0836, 0.2070, 1.8987,-1.2947, 0.3385
09-Sep-2020 10:52:45.906, 0.2415, 0.9478, 0.1099, 0.0905, 0.1420, 0.2055, 1.8930,-1.2929, 0.3335
09-Sep-2020 10:52:45.916, 0.2489, 0.9409, 0.1141, 0.0921, 0.2927, 0.2044, 1.8890,-1.2912, 0.3278
09-Sep-2020 10:52:45.926, 0.2412, 0.9288, 0.1219, 0.0856, 0.3762, 0.2078, 1.8864,-1.2895, 0.3222
09-Sep-2020 10:52:45.936, 0.2448, 0.9405, 0.1228, 0.0737, 0.4297, 0.2225, 1.8849,-1.2877, 0.3168
09-Sep-2020 10:52:45.946, 0.2460, 0.9436, 0.1242, 0.0460, 0.4618, 0.2218, 1.8843,-1.2858, 0.3117
09-Sep-2020 10:52:45.956, 0.2409, 0.9533, 0.1114, 0.0615, 0.4587, 0.1926, 1.8848,-1.2838, 0.3074
09-Sep-2020 10:52:45.966, 0.2388, 0.9754, 0.1004, 0.0961, 0.4741, 0.1736, 1.8851,-1.2821, 0.3030
09-Sep-2020 10:52:45.976, 0.2385, 0.9886, 0.1079, 0.1230, 0.5249, 0.1482, 1.8848,-1.2807, 0.2978
09-Sep-2020 10:52:45.986, 0.2373, 0.9991, 0.1178, 0.1412, 0.6120, 0.1385, 1.8844,-1.2796, 0.2919
09-Sep-2020 10:52:45.996, 0.2321, 1.0001, 0.1299, 0.1352, 0.7525, 0.1508, 1.8845,-1.2786, 0.2856
09-Sep-2020 10:52:46.006, 0.2173, 0.9854, 0.1617, 0.0997, 1.0472, 0.1702, 1.8862,-1.2776, 0.2795
09-Sep-2020 10:52:46.016, 0.2037, 0.9704, 0.1698, 0.0695, 1.4634, 0.1617, 1.8916,-1.2762, 0.2742
09-Sep-2020 10:52:46.026, 0.1639, 0.9389, 0.1500, 0.1357, 1.9077, 0.1102, 1.9019,-1.2749, 0.2697
09-Sep-2020 10:52:46.035, 0.1282, 0.8893, 0.1048, 0.2697, 2.2068, 0.0245, 1.9152,-1.2743, 0.2638
09-Sep-2020 10:52:46.045, 0.1103, 0.8909, 0.0652, 0.4336, 2.1407,-0.1109, 1.9281,-1.2750, 0.2546
09-Sep-2020 10:52:46.055, 0.1262, 0.9518,-0.0044, 0.5677, 1.7391,-0.1867, 1.9370,-1.2775, 0.2419
09-Sep-2020 10:52:46.065, 0.1749, 1.0069,-0.0208, 0.5987, 1.1520,-0.1652, 1.9388,-1.2811, 0.2258
09-Sep-2020 10:52:46.075, 0.2126, 1.0326, 0.0039, 0.5419, 0.5687,-0.1326, 1.9334,-1.2847, 0.2082
09-Sep-2020 10:52:46.085, 0.2252, 1.0540, 0.0293, 0.4602, 0.1396,-0.1022, 1.9233,-1.2878, 0.1917
09-Sep-2020 10:52:46.095, 0.2332, 1.0535, 0.0630, 0.3613,-0.1181,-0.0523, 1.9109,-1.2902, 0.1773
09-Sep-2020 10:52:46.106, 0.2225, 1.0413, 0.1008, 0.2702,-0.2744,-0.0053, 1.8983,-1.2918, 0.1653
09-Sep-2020 10:52:46.115, 0.2000, 1.0214, 0.1335, 0.1581,-0.3004, 0.0263, 1.8867,-1.2926, 0.1560
09-Sep-2020 10:52:46.126, 0.2348, 1.0036, 0.1580, 0.0338,-0.2403, 0.0644, 1.8780,-1.2928, 0.1500
09-Sep-2020 10:52:46.135, 0.2834, 0.9749, 0.1334,-0.0748,-0.2294, 0.0978, 1.8736,-1.2923, 0.1480
09-Sep-2020 10:52:46.145, 0.3153, 0.9487, 0.0956,-0.1277,-0.2445, 0.1369, 1.8725,-1.2911, 0.1492
09-Sep-2020 10:52:46.155, 0.3275, 0.9348, 0.0490,-0.0938,-0.2943, 0.1640, 1.8725,-1.2893, 0.1518
09-Sep-2020 10:52:46.165, 0.3024, 0.9140, 0.0149,-0.0532,-0.4949, 0.0754, 1.8707,-1.2875, 0.1531
09-Sep-2020 10:52:46.175, 0.2128, 0.8725, 0.0052,-0.0659,-0.8588,-0.0443, 1.8666,-1.2866, 0.1541
09-Sep-2020 10:52:46.185, 0.2119, 0.8751, 0.0242,-0.0635,-0.8816,-0.0053, 1.8606,-1.2866, 0.1565
09-Sep-2020 10:52:46.195, 0.2937, 0.9198, 0.0530,-0.0370,-0.6592, 0.0947, 1.8539,-1.2864, 0.1585
09-Sep-2020 10:52:46.205, 0.2927, 0.9541, 0.0878, 0.0148,-0.2922, 0.1003, 1.8476,-1.2854, 0.1586
09-Sep-2020 10:52:46.215, 0.2610, 0.9763, 0.1422, 0.0953, 0.1033, 0.0666, 1.8430,-1.2845, 0.1569
09-Sep-2020 10:52:46.225, 0.2543, 0.9846, 0.1748, 0.1819, 0.4766, 0.0205, 1.8401,-1.2840, 0.1528
09-Sep-2020 10:52:46.235, 0.2585, 0.9764, 0.1836, 0.2450, 0.6886,-0.0039, 1.8385,-1.2842, 0.1463
09-Sep-2020 10:52:46.245, 0.2690, 0.9585, 0.1720, 0.2500, 0.7740,-0.0127, 1.8372,-1.2849, 0.1379
09-Sep-2020 10:52:46.255, 0.2681, 0.9542, 0.1657, 0.2045, 0.7590,-0.0259, 1.8367,-1.2856, 0.1294
09-Sep-2020 10:52:46.264, 0.2659, 0.9648, 0.1397, 0.1294, 0.6511,-0.0431, 1.8377,-1.2863, 0.1226
09-Sep-2020 10:52:46.274, 0.2709, 0.9718, 0.0976, 0.0665, 0.4982,-0.0468, 1.8401,-1.2870, 0.1184
09-Sep-2020 10:52:46.284, 0.2755, 0.9708, 0.0521, 0.0279, 0.3278,-0.0406, 1.8430,-1.2875, 0.1163
09-Sep-2020 10:52:46.294, 0.2742, 0.9691, 0.0109, 0.0086, 0.1527,-0.0351, 1.8455,-1.2880, 0.1156
09-Sep-2020 10:52:46.304, 0.2660, 0.9723,-0.0148, 0.0079, 0.0009,-0.0326, 1.8469,-1.2883, 0.1154
09-Sep-2020 10:52:46.314, 0.2517, 0.9756,-0.0184, 0.0256,-0.1114,-0.0365, 1.8467,-1.2885, 0.1152
09-Sep-2020 10:52:46.324, 0.2334, 0.9703,-0.0067, 0.0430,-0.1615,-0.0418, 1.8449,-1.2889, 0.1145
09-Sep-2020 10:52:46.334, 0.2217, 0.9605, 0.0180, 0.0576,-0.1704,-0.0395, 1.8421,-1.2893, 0.1132
09-Sep-2020 10:52:46.344, 0.2157, 0.9552, 0.0438, 0.0696,-0.1490,-0.0270, 1.8387,-1.2898, 0.1114
09-Sep-2020 10:52:46.354, 0.2229, 0.9574, 0.0812, 0.0694,-0.1099,-0.0251, 1.8350,-1.2902, 0.1090
09-Sep-2020 10:52:46.364, 0.2398, 0.9663, 0.1179, 0.0612,-0.0661,-0.0204, 1.8315,-1.2906, 0.1066
09-Sep-2020 10:52:46.374, 0.2507, 0.9751, 0.1481, 0.0410, 0.0079,-0.0147, 1.8288,-1.2908, 0.1045
09-Sep-2020 10:52:46.384, 0.2519, 0.9758, 0.1650, 0.0223, 0.1079,-0.0132, 1.8275,-1.2910, 0.1030
09-Sep-2020 10:52:46.394, 0.2482, 0.9727, 0.1536, 0.0026, 0.1864,-0.0077, 1.8277,-1.2911, 0.1022
09-Sep-2020 10:52:46.404, 0.2482, 0.9693, 0.1164, 0.0059, 0.2245, 0.0056, 1.8293,-1.2912, 0.1019
09-Sep-2020 10:52:46.414, 0.2478, 0.9713, 0.0753, 0.0165, 0.2293, 0.0209, 1.8310,-1.2911, 0.1014
09-Sep-2020 10:52:46.424, 0.2370, 0.9732, 0.0506, 0.0218, 0.1900, 0.0331, 1.8318,-1.2911, 0.1000
09-Sep-2020 10:52:46.433, 0.2204, 0.9754, 0.0363, 0.0218, 0.1900, 0.0331, 1.8322,-1.2909, 0.0985
09-Sep-2020 10:52:46.444, 0.2069, 0.9765, 0.0331,-0.0116,-0.0082, 0.0448, 1.8324,-1.2906, 0.0976
09-Sep-2020 10:52:46.454, 0.1990, 0.9787, 0.0343,-0.0349,-0.1004, 0.0491, 1.8327,-1.2902, 0.0979
09-Sep-2020 10:52:46.464, 0.1955, 0.9814, 0.0383,-0.0420,-0.1685, 0.0494, 1.8330,-1.2896, 0.0993
09-Sep-2020 10:52:46.474, 0.1934, 0.9822, 0.0517,-0.0403,-0.2005, 0.0434, 1.8332,-1.2889, 0.1011
09-Sep-2020 10:52:46.484, 0.1996, 0.9787, 0.0663,-0.0366,-0.2233, 0.0360, 1.8328,-1.2883, 0.1028
09-Sep-2020 10:52:46.493, 0.2164, 0.9728, 0.0751,-0.0436,-0.2402, 0.0370, 1.8319,-1.2879, 0.1040
09-Sep-2020 10:52:46.503, 0.2316, 0.9679, 0.0847,-0.0494,-0.2567, 0.0396, 1.8304,-1.2874, 0.1050
09-Sep-2020 10:52:46.514, 0.2431, 0.9660, 0.0904,-0.0569,-0.2584, 0.0444, 1.8288,-1.2870, 0.1060
09-Sep-2020 10:52:46.524, 0.2479, 0.9633, 0.0972,-0.0616,-0.2521, 0.0546, 1.8272,-1.2865, 0.1070
09-Sep-2020 10:52:46.533, 0.2459, 0.9617, 0.1017,-0.0723,-0.2451, 0.0695, 1.8258,-1.2860, 0.1082
09-Sep-2020 10:52:46.543, 0.2403, 0.9592, 0.1002,-0.0819,-0.2384, 0.0807, 1.8247,-1.2854, 0.1096
09-Sep-2020 10:52:46.553, 0.2402, 0.9567, 0.0930,-0.0920,-0.2412, 0.0881, 1.8239,-1.2847, 0.1113
09-Sep-2020 10:52:46.563, 0.2454, 0.9527, 0.0849,-0.0955,-0.2533, 0.1075, 1.8235,-1.2838, 0.1135
09-Sep-2020 10:52:46.573, 0.2527, 0.9507, 0.0787,-0.0974,-0.2694, 0.1192, 1.8232,-1.2827, 0.1157
09-Sep-2020 10:52:46.583, 0.2615, 0.9547, 0.0781,-0.0946,-0.2924, 0.1325, 1.8226,-1.2814, 0.1180
09-Sep-2020 10:52:46.593, 0.2701, 0.9608, 0.0828,-0.0953,-0.3194, 0.1431, 1.8217,-1.2800, 0.1200
09-Sep-2020 10:52:46.603, 0.2789, 0.9649, 0.0888,-0.0993,-0.3419, 0.1499, 1.8205,-1.2784, 0.1221
09-Sep-2020 10:52:46.613, 0.2880, 0.9659, 0.0931,-0.0964,-0.3519, 0.1551, 1.8191,-1.2768, 0.1242
09-Sep-2020 10:52:46.623, 0.2944, 0.9646, 0.0972,-0.0861,-0.3339, 0.1593, 1.8172,-1.2750, 0.1259
09-Sep-2020 10:52:46.633, 0.2976, 0.9612, 0.0973,-0.0712,-0.2962, 0.1592, 1.8152,-1.2732, 0.1272
09-Sep-2020 10:52:46.643, 0.2966, 0.9564, 0.0927,-0.0515,-0.2467, 0.1523, 1.8131,-1.2714, 0.1281
09-Sep-2020 10:52:46.653, 0.2916, 0.9469, 0.0856,-0.0242,-0.1971, 0.1519, 1.8110,-1.2698, 0.1284
09-Sep-2020 10:52:46.662, 0.2871, 0.9373, 0.0770, 0.0066,-0.1418, 0.1561, 1.8085,-1.2682, 0.1278
09-Sep-2020 10:52:46.672, 0.2810, 0.9347, 0.0699, 0.0365,-0.0914, 0.1569, 1.8055,-1.2666, 0.1263
09-Sep-2020 10:52:46.682, 0.2736, 0.9391, 0.0679, 0.0662,-0.0390, 0.1534, 1.8022,-1.2651, 0.1237
09-Sep-2020 10:52:46.693, 0.2675, 0.9422, 0.0707, 0.0894,-0.0004, 0.1446, 1.7986,-1.2637, 0.1203
09-Sep-2020 10:52:46.702, 0.2645, 0.9478, 0.0762, 0.1073, 0.0279, 0.1367, 1.7946,-1.2625, 0.1162
09-Sep-2020 10:52:46.713, 0.2644, 0.9542, 0.0835, 0.1130, 0.0281, 0.1249, 1.7905,-1.2613, 0.1117
09-Sep-2020 10:52:46.722, 0.2682, 0.9579, 0.0913, 0.1009, 0.0162, 0.1116, 1.7864,-1.2603, 0.1070
09-Sep-2020 10:52:46.732, 0.2725, 0.9578, 0.0969, 0.0831,-0.0006, 0.0988, 1.7826,-1.2594, 0.1029
09-Sep-2020 10:52:46.742, 0.2776, 0.9543, 0.0959, 0.0642,-0.0223, 0.0917, 1.7793,-1.2585, 0.0994
09-Sep-2020 10:52:46.752, 0.2805, 0.9475, 0.0899, 0.0550,-0.0275, 0.0801, 1.7764,-1.2577, 0.0967
09-Sep-2020 10:52:46.762, 0.2786, 0.9427, 0.0827, 0.0472,-0.0254, 0.0715, 1.7739,-1.2570, 0.0943
09-Sep-2020 10:52:46.772, 0.2750, 0.9418, 0.0739, 0.0553,-0.0080, 0.0610, 1.7716,-1.2564, 0.0922
09-Sep-2020 10:52:46.782, 0.2706, 0.9440, 0.0669, 0.0651, 0.0101, 0.0487, 1.7695,-1.2560, 0.0900
09-Sep-2020 10:52:46.792, 0.2652, 0.9482, 0.0612, 0.0826, 0.0283, 0.0343, 1.7673,-1.2557, 0.0876
09-Sep-2020 10:52:46.802, 0.2607, 0.9556, 0.0553, 0.0987, 0.0461, 0.0132, 1.7651,-1.2555, 0.0849
09-Sep-2020 10:52:46.812, 0.2591, 0.9594, 0.0541, 0.1134, 0.0709,-0.0099, 1.7627,-1.2556, 0.0819
09-Sep-2020 10:52:46.822, 0.2621, 0.9591, 0.0551, 0.1289, 0.1007,-0.0322, 1.7602,-1.2560, 0.0785
09-Sep-2020 10:52:46.831, 0.2664, 0.9554, 0.0577, 0.1406, 0.1262,-0.0513, 1.7577,-1.2565, 0.0748
09-Sep-2020 10:52:46.842, 0.2712, 0.9500, 0.0612, 0.1387, 0.1448,-0.0602, 1.7552,-1.2572, 0.0708
09-Sep-2020 10:52:46.852, 0.2769, 0.9426, 0.0643, 0.1344, 0.1468,-0.0546, 1.7528,-1.2581, 0.0668
09-Sep-2020 10:52:46.861, 0.2828, 0.9411, 0.0646, 0.1161, 0.1190,-0.0459, 1.7506,-1.2588, 0.0629
09-Sep-2020 10:52:46.871, 0.2867, 0.9434, 0.0656, 0.0969, 0.0779,-0.0298, 1.7484,-1.2595, 0.0594
09-Sep-2020 10:52:46.882, 0.2904, 0.9509, 0.0658, 0.0754, 0.0264,-0.0135, 1.7463,-1.2600, 0.0564
09-Sep-2020 10:52:46.891, 0.2884, 0.9590, 0.0659, 0.0584,-0.0086,-0.0044, 1.7442,-1.2603, 0.0539
09-Sep-2020 10:52:46.901, 0.2773, 0.9637, 0.0671, 0.0436,-0.0283,-0.0014, 1.7422,-1.2605, 0.0519
09-Sep-2020 10:52:46.911, 0.2627, 0.9629, 0.0648, 0.0374,-0.0343,-0.0026, 1.7404,-1.2607, 0.0504
09-Sep-2020 10:52:46.921, 0.2502, 0.9611, 0.0579, 0.0326,-0.0417,-0.0077, 1.7389,-1.2608, 0.0491
09-Sep-2020 10:52:46.931, 0.2435, 0.9594, 0.0491, 0.0357,-0.0366,-0.0155, 1.7375,-1.2609, 0.0480
09-Sep-2020 10:52:46.941, 0.2431, 0.9558, 0.0426, 0.0414,-0.0351,-0.0244, 1.7360,-1.2611, 0.0469
09-Sep-2020 10:52:46.951, 0.2440, 0.9510, 0.0415, 0.0401,-0.0220,-0.0265, 1.7345,-1.2614, 0.0457
09-Sep-2020 10:52:46.961, 0.2475, 0.9482, 0.0446, 0.0411, 0.0039,-0.0285, 1.7332,-1.2617, 0.0445
09-Sep-2020 10:52:46.971, 0.2478, 0.9468, 0.0513, 0.0336, 0.0221,-0.0296, 1.7321,-1.2620, 0.0433
09-Sep-2020 10:52:46.981, 0.2477, 0.9420, 0.0575, 0.0286, 0.0315,-0.0210, 1.7314,-1.2623, 0.0423
09-Sep-2020 10:52:46.991, 0.2497, 0.9412, 0.0575, 0.0363, 0.0303,-0.0145, 1.7309,-1.2626, 0.0415
09-Sep-2020 10:52:47.001, 0.2479, 0.9450, 0.0545, 0.0470, 0.0357,-0.0179, 1.7301,-1.2628, 0.0404
09-Sep-2020 10:52:47.011, 0.2477, 0.9475, 0.0499, 0.0546, 0.0362,-0.0276, 1.7291,-1.2631, 0.0389
09-Sep-2020 10:52:47.021, 0.2509, 0.9454, 0.0488, 0.0500, 0.0402,-0.0266, 1.7278,-1.2636, 0.0372
09-Sep-2020 10:52:47.031, 0.2577, 0.9443, 0.0514, 0.0236, 0.0360,-0.0294, 1.7266,-1.2640, 0.0356
09-Sep-2020 10:52:47.041, 0.2631, 0.9457, 0.0538,-0.0069, 0.0267,-0.0353, 1.7262,-1.2644, 0.0348
09-Sep-2020 10:52:47.051, 0.2666, 0.9526, 0.0544,-0.0315, 0.0135,-0.0431, 1.7267,-1.2648, 0.0350
09-Sep-2020 10:52:47.061, 0.2662, 0.9635, 0.0485,-0.0433,-0.0110,-0.0527, 1.7278,-1.2652, 0.0361
09-Sep-2020 10:52:47.071, 0.2625, 0.9706, 0.0403,-0.0420,-0.0334,-0.0556, 1.7292,-1.2657, 0.0377
09-Sep-2020 10:52:47.081, 0.2541, 0.9724, 0.0345,-0.0440,-0.0520,-0.0625, 1.7304,-1.2662, 0.0394
09-Sep-2020 10:52:47.091, 0.2410, 0.9729, 0.0336,-0.0659,-0.0659,-0.0714, 1.7316,-1.2668, 0.0411
09-Sep-2020 10:52:47.101, 0.2333, 0.9712, 0.0359,-0.0866,-0.0745,-0.0747, 1.7332,-1.2674, 0.0435
09-Sep-2020 10:52:47.111, 0.2306, 0.9689, 0.0362,-0.0987,-0.0739,-0.0752, 1.7355,-1.2681, 0.0467
09-Sep-2020 10:52:47.120, 0.2300, 0.9663, 0.0337,-0.1041,-0.0698,-0.0813, 1.7381,-1.2687, 0.0502
09-Sep-2020 10:52:47.130, 0.2326, 0.9643, 0.0340,-0.1022,-0.0543,-0.0927, 1.7410,-1.2693, 0.0540
09-Sep-2020 10:52:47.140, 0.2430, 0.9689, 0.0346,-0.1048,-0.0481,-0.1066, 1.7441,-1.2700, 0.0577
09-Sep-2020 10:52:47.150, 0.2574, 0.9689, 0.0381,-0.1131,-0.0144,-0.1258, 1.7473,-1.2709, 0.0616
09-Sep-2020 10:52:47.160, 0.2753, 0.9630, 0.0429,-0.1246, 0.0151,-0.1416, 1.7513,-1.2720, 0.0659
09-Sep-2020 10:52:47.170, 0.2956, 0.9589, 0.0395,-0.1303, 0.0349,-0.1544, 1.7559,-1.2732, 0.0706
09-Sep-2020 10:52:47.180, 0.3135, 0.9584, 0.0318,-0.1281, 0.0557,-0.1631, 1.7610,-1.2746, 0.0756
09-Sep-2020 10:52:47.190, 0.3283, 0.9531, 0.0255,-0.1164, 0.0736,-0.1733, 1.7664,-1.2760, 0.0807
09-Sep-2020 10:52:47.200, 0.3494, 0.9428, 0.0206,-0.1055, 0.0867,-0.1624, 1.7717,-1.2776, 0.0855
09-Sep-2020 10:52:47.210, 0.3726, 0.9371, 0.0209,-0.1037, 0.1051,-0.1351, 1.7767,-1.2790, 0.0898
09-Sep-2020 10:52:47.220, 0.3911, 0.9316, 0.0239,-0.1106, 0.1177,-0.1072, 1.7817,-1.2802, 0.0940
09-Sep-2020 10:52:47.230, 0.4055, 0.9327, 0.0214,-0.1139, 0.1305,-0.0886, 1.7868,-1.2811, 0.0981
09-Sep-2020 10:52:47.240, 0.4128, 0.9397, 0.0143,-0.1196, 0.1346,-0.0686, 1.7921,-1.2817, 0.1023
09-Sep-2020 10:52:47.250, 0.4148, 0.9450, 0.0034,-0.1072, 0.1488,-0.0482, 1.7974,-1.2821, 0.1065
09-Sep-2020 10:52:47.260, 0.4151, 0.9437,-0.0094,-0.0739, 0.1732,-0.0265, 1.8022,-1.2822, 0.1100
09-Sep-2020 10:52:47.269, 0.4113, 0.9432,-0.0187,-0.0279, 0.1941,-0.0065, 1.8059,-1.2822, 0.1121
09-Sep-2020 10:52:47.279, 0.4017, 0.9472,-0.0210, 0.0176, 0.2200, 0.0045, 1.8081,-1.2820, 0.1125
09-Sep-2020 10:52:47.289, 0.3860, 0.9513,-0.0134, 0.0524, 0.2499, 0.0031, 1.8089,-1.2818, 0.1111
09-Sep-2020 10:52:47.300, 0.3635, 0.9594,-0.0053, 0.0812, 0.2887,-0.0021, 1.8089,-1.2816, 0.1085
09-Sep-2020 10:52:47.310, 0.3392, 0.9703, 0.0055, 0.0995, 0.3339,-0.0087, 1.8079,-1.2813, 0.1046
09-Sep-2020 10:52:47.319, 0.3143, 0.9773, 0.0194, 0.0996, 0.3659,-0.0270, 1.8065,-1.2810, 0.0997
09-Sep-2020 10:52:47.329, 0.2957, 0.9742, 0.0297, 0.0866, 0.3619,-0.0302, 1.8051,-1.2807, 0.0947
09-Sep-2020 10:52:47.339, 0.2906, 0.9707, 0.0345, 0.0696, 0.3385,-0.0204, 1.8038,-1.2804, 0.0898
09-Sep-2020 10:52:47.349, 0.2908, 0.9711, 0.0428, 0.0432, 0.3062,-0.0040, 1.8024,-1.2799, 0.0851
09-Sep-2020 10:52:47.359, 0.2878, 0.9718, 0.0490, 0.0221, 0.2693, 0.0066, 1.8012,-1.2793, 0.0809
09-Sep-2020 10:52:47.369, 0.2803, 0.9689, 0.0515, 0.0090, 0.2444, 0.0141, 1.8004,-1.2786, 0.0774
09-Sep-2020 10:52:47.379, 0.2783, 0.9607, 0.0533, 0.0069, 0.2326, 0.0236, 1.8005,-1.2780, 0.0751
09-Sep-2020 10:52:47.389, 0.2801, 0.9503, 0.0506, 0.0083, 0.2354, 0.0327, 1.8022,-1.2777, 0.0746
09-Sep-2020 10:52:47.399, 0.2805, 0.9466, 0.0490, 0.0159, 0.2677, 0.0274, 1.8039,-1.2774, 0.0738
09-Sep-2020 10:52:47.409, 0.2845, 0.9433, 0.0445, 0.0282, 0.3108, 0.0200, 1.8056,-1.2771, 0.0729
09-Sep-2020 10:52:47.419, 0.2900, 0.9404, 0.0378, 0.0360, 0.3474, 0.0159, 1.8075,-1.2769, 0.0716
09-Sep-2020 10:52:47.429, 0.2905, 0.9375, 0.0337, 0.0447, 0.3610, 0.0037, 1.8094,-1.2768, 0.0701
09-Sep-2020 10:52:47.439, 0.2850, 0.9369, 0.0323, 0.0471, 0.3359, 0.0008, 1.8114,-1.2768, 0.0684
09-Sep-2020 10:52:47.449, 0.2793, 0.9449, 0.0345, 0.0382, 0.2771, 0.0016, 1.8130,-1.2768, 0.0666
09-Sep-2020 10:52:47.459, 0.2698, 0.9617, 0.0531, 0.0062, 0.2121, 0.0006, 1.8144,-1.2768, 0.0652
09-Sep-2020 10:52:47.469, 0.2510, 0.9800, 0.0733,-0.0357, 0.1339,-0.0078, 1.8161,-1.2768, 0.0648
09-Sep-2020 10:52:47.479, 0.2319, 0.9915, 0.0835,-0.0851, 0.0815,-0.0292, 1.8185,-1.2767, 0.0659
09-Sep-2020 10:52:47.488, 0.2095, 1.0020, 0.0922,-0.1241, 0.0584,-0.0455, 1.8221,-1.2767, 0.0688
09-Sep-2020 10:52:47.498, 0.1989, 1.0079, 0.0817,-0.1386, 0.0507,-0.0523, 1.8268,-1.2768, 0.0731
09-Sep-2020 10:52:47.508, 0.1975, 1.0046, 0.0621,-0.1435, 0.0506,-0.0567, 1.8316,-1.2768, 0.0776
09-Sep-2020 10:52:47.518, 0.1960, 0.9993, 0.0445,-0.1445, 0.0390,-0.0773, 1.8365,-1.2770, 0.0823
09-Sep-2020 10:52:47.528, 0.2083, 0.9877, 0.0317,-0.1446, 0.0081,-0.0822, 1.8415,-1.2773, 0.0871
09-Sep-2020 10:52:47.538, 0.2372, 0.9716, 0.0285,-0.1607,-0.0572,-0.0720, 1.8462,-1.2776, 0.0921
09-Sep-2020 10:52:47.548, 0.2584, 0.9667, 0.0403,-0.1962,-0.1327,-0.0629, 1.8510,-1.2778, 0.0977
09-Sep-2020 10:52:47.558, 0.2598, 0.9782, 0.0626,-0.2346,-0.2003,-0.0564, 1.8562,-1.2779, 0.1045
09-Sep-2020 10:52:47.568, 0.2485, 0.9940, 0.0812,-0.2778,-0.2668,-0.0570, 1.8620,-1.2779, 0.1127
09-Sep-2020 10:52:47.578, 0.2405, 1.0026, 0.0859,-0.3082,-0.3101,-0.0624, 1.8687,-1.2778, 0.1224
09-Sep-2020 10:52:47.588, 0.2375, 1.0003, 0.0828,-0.3372,-0.3325,-0.0650, 1.8760,-1.2776, 0.1332
09-Sep-2020 10:52:47.598, 0.2417, 0.9862, 0.0747,-0.3498,-0.3347,-0.0577, 1.8836,-1.2774, 0.1446
09-Sep-2020 10:52:47.608, 0.2504, 0.9730, 0.0597,-0.3502,-0.3189,-0.0485, 1.8915,-1.2770, 0.1563
09-Sep-2020 10:52:47.618, 0.2601, 0.9675, 0.0447,-0.3279,-0.2983,-0.0411, 1.8992,-1.2765, 0.1677
09-Sep-2020 10:52:47.628, 0.2704, 0.9598, 0.0347,-0.3004,-0.2713,-0.0390, 1.9066,-1.2758, 0.1786
09-Sep-2020 10:52:47.638, 0.2769, 0.9521, 0.0361,-0.2721,-0.2513,-0.0376, 1.9134,-1.2751, 0.1885
09-Sep-2020 10:52:47.648, 0.2805, 0.9461, 0.0438,-0.2539,-0.2443,-0.0269, 1.9194,-1.2744, 0.1975
09-Sep-2020 10:52:47.658, 0.2793, 0.9483, 0.0564,-0.2449,-0.2522,-0.0172, 1.9248,-1.2738, 0.2057
09-Sep-2020 10:52:47.667, 0.2693, 0.9671, 0.0734,-0.2483,-0.2816,-0.0117, 1.9298,-1.2730, 0.2135
09-Sep-2020 10:52:47.677, 0.2489, 0.9961, 0.0869,-0.2737,-0.3251,-0.0246, 1.9345,-1.2722, 0.2214
09-Sep-2020 10:52:47.688, 0.2293, 1.0142, 0.0955,-0.3127,-0.3759,-0.0418, 1.9395,-1.2714, 0.2301
09-Sep-2020 10:52:47.697, 0.2155, 1.0156, 0.0938,-0.3530,-0.4390,-0.0641, 1.9455,-1.2706, 0.2402
09-Sep-2020 10:52:47.708, 0.2087, 1.0083, 0.0795,-0.3790,-0.5040,-0.0706, 1.9521,-1.2698, 0.2518
09-Sep-2020 10:52:47.718, 0.2020, 0.9960, 0.0677,-0.3820,-0.5653,-0.0646, 1.9589,-1.2690, 0.2642
09-Sep-2020 10:52:47.727, 0.1901, 0.9819, 0.0621,-0.3715,-0.6038,-0.0540, 1.9651,-1.2681, 0.2765
09-Sep-2020 10:52:47.737, 0.1825, 0.9731, 0.0635,-0.3485,-0.6396,-0.0377, 1.9704,-1.2671, 0.2884
09-Sep-2020 10:52:47.747, 0.1725, 0.9691, 0.0658,-0.3068,-0.6763,-0.0132, 1.9744,-1.2660, 0.2993
09-Sep-2020 10:52:47.757, 0.1614, 0.9728, 0.0799,-0.2786,-0.7089, 0.0031, 1.9765,-1.2649, 0.3086
09-Sep-2020 10:52:47.767, 0.1433, 0.9880, 0.0985,-0.2852,-0.7899,-0.0006, 1.9773,-1.2637, 0.3169
09-Sep-2020 10:52:47.777, 0.1292, 1.0050, 0.1049,-0.3195,-0.8951,-0.0168, 1.9775,-1.2626, 0.3254
09-Sep-2020 10:52:47.787, 0.1216, 1.0164, 0.1170,-0.3782,-1.0195,-0.0331, 1.9778,-1.2614, 0.3351
09-Sep-2020 10:52:47.797, 0.1175, 1.0207, 0.1188,-0.4423,-1.1892,-0.0465, 1.9786,-1.2601, 0.3466
09-Sep-2020 10:52:47.807, 0.1171, 1.0181, 0.1225,-0.4950,-1.3273,-0.0589, 1.9797,-1.2588, 0.3601
09-Sep-2020 10:52:47.817, 0.1200, 1.0127, 0.1380,-0.5268,-1.4498,-0.0573, 1.9809,-1.2573, 0.3753
09-Sep-2020 10:52:47.827, 0.1282, 1.0052, 0.1426,-0.5507,-1.5483,-0.0540, 1.9818,-1.2556, 0.3914
09-Sep-2020 10:52:47.837, 0.1399, 1.0002, 0.1532,-0.5749,-1.6379,-0.0584, 1.9822,-1.2539, 0.4081
09-Sep-2020 10:52:47.847, 0.1538, 1.0041, 0.1590,-0.6040,-1.7311,-0.0746, 1.9824,-1.2521, 0.4255
09-Sep-2020 10:52:47.857, 0.1699, 1.0116, 0.1648,-0.6341,-1.8057,-0.0884, 1.9825,-1.2503, 0.4437
09-Sep-2020 10:52:47.867, 0.1836, 1.0114, 0.1708,-0.6569,-1.8841,-0.0977, 1.9827,-1.2485, 0.4629
09-Sep-2020 10:52:47.879, 0.1960, 1.0152, 0.1776,-0.6620,-1.9168,-0.1157, 1.9828,-1.2468, 0.4828
09-Sep-2020 10:52:47.887, 0.2020, 1.0278, 0.1935,-0.6671,-1.8831,-0.1441, 1.9829,-1.2452, 0.5030
09-Sep-2020 10:52:47.896, 0.2062, 1.0256, 0.2176,-0.6872,-1.8061,-0.1758, 1.9837,-1.2437, 0.5236
09-Sep-2020 10:52:47.906, 0.2090, 1.0127, 0.2344,-0.7222,-1.7331,-0.2121, 1.9861,-1.2425, 0.5451
09-Sep-2020 10:52:47.916, 0.2089, 1.0105, 0.2322,-0.7477,-1.6681,-0.2588, 1.9904,-1.2415, 0.5679
09-Sep-2020 10:52:47.926, 0.2092, 1.0060, 0.2105,-0.7607,-1.6133,-0.2970, 1.9965,-1.2408, 0.5919
09-Sep-2020 10:52:47.937, 0.2159, 0.9979, 0.1798,-0.7634,-1.5808,-0.3084, 2.0039,-1.2402, 0.6167
09-Sep-2020 10:52:47.946, 0.2216, 0.9823, 0.1556,-0.7592,-1.5601,-0.2979, 2.0117,-1.2397, 0.6417
09-Sep-2020 10:52:47.956, 0.2239, 0.9592, 0.1362,-0.7289,-1.5598,-0.2625, 2.0194,-1.2391, 0.6663
09-Sep-2020 10:52:47.966, 0.2243, 0.9414, 0.1041,-0.6619,-1.5713,-0.2388, 2.0259,-1.2383, 0.6896
09-Sep-2020 10:52:47.977, 0.2242, 0.9351, 0.0647,-0.5746,-1.5855,-0.2420, 2.0302,-1.2375, 0.7107
09-Sep-2020 10:52:47.986, 0.2258, 0.9244, 0.0394,-0.4926,-1.5683,-0.2586, 2.0321,-1.2370, 0.7294
09-Sep-2020 10:52:47.996, 0.2369, 0.9061, 0.0314,-0.4063,-1.4866,-0.2682, 2.0323,-1.2371, 0.7461
09-Sep-2020 10:52:48.006, 0.2560, 0.8833, 0.0145,-0.2879,-1.3477,-0.2652, 2.0311,-1.2376, 0.7605
09-Sep-2020 10:52:48.016, 0.2757, 0.8701,-0.0090,-0.1322,-1.1523,-0.2562, 2.0283,-1.2387, 0.7717
09-Sep-2020 10:52:48.026, 0.3056, 0.8713,-0.0216, 0.0406,-0.8343,-0.2245, 2.0234,-1.2403, 0.7785
09-Sep-2020 10:52:48.036, 0.3517, 0.8725,-0.0263, 0.2035,-0.4521,-0.1565, 2.0166,-1.2424, 0.7802
09-Sep-2020 10:52:48.046, 0.3986, 0.8653,-0.0156, 0.3101,-0.0649,-0.0671, 2.0086,-1.2446, 0.7765
09-Sep-2020 10:52:48.056, 0.4406, 0.8437, 0.0042, 0.3799, 0.2134, 0.0335, 2.0003,-1.2465, 0.7684
09-Sep-2020 10:52:48.066, 0.4750, 0.8206, 0.0183, 0.4106, 0.3644, 0.1107, 1.9915,-1.2477, 0.7571
09-Sep-2020 10:52:48.076, 0.4978, 0.8052, 0.0324, 0.4375, 0.3652, 0.1542, 1.9824,-1.2483, 0.7437
09-Sep-2020 10:52:48.085, 0.5263, 0.7915, 0.0410, 0.4718, 0.2546, 0.1857, 1.9720,-1.2485, 0.7290
09-Sep-2020 10:52:48.096, 0.5644, 0.7761, 0.0577, 0.4887, 0.0401, 0.2294, 1.9592,-1.2486, 0.7129
09-Sep-2020 10:52:48.106, 0.6164, 0.7655, 0.0960, 0.4286,-0.2544, 0.2886, 1.9435,-1.2482, 0.6960
09-Sep-2020 10:52:48.115, 0.6586, 0.7641, 0.1575, 0.2856,-0.5261, 0.3421, 1.9260,-1.2470, 0.6802
09-Sep-2020 10:52:48.126, 0.6790, 0.7747, 0.2293, 0.1134,-0.6492, 0.4191, 1.9094,-1.2446, 0.6681
09-Sep-2020 10:52:48.135, 0.6787, 0.8035, 0.2720,-0.0010,-0.6102, 0.4302, 1.8956,-1.2410, 0.6603
09-Sep-2020 10:52:48.145, 0.6200, 0.8647, 0.2944,-0.0543,-0.4109, 0.3262, 1.8856,-1.2370, 0.6560
09-Sep-2020 10:52:48.155, 0.5589, 0.9243, 0.3193,-0.0595,-0.1092, 0.1712, 1.8800,-1.2337, 0.6543
09-Sep-2020 10:52:48.165, 0.5232, 0.9752, 0.3357,-0.0510, 0.2403, 0.0602, 1.8789,-1.2319, 0.6542
09-Sep-2020 10:52:48.175, 0.4968, 0.9998, 0.3569,-0.0548, 0.6466, 0.0280, 1.8820,-1.2310, 0.6550
09-Sep-2020 10:52:48.185, 0.4467, 0.9901, 0.3560,-0.0641, 0.9862, 0.0363, 1.8894,-1.2305, 0.6561
09-Sep-2020 10:52:48.195, 0.3887, 0.9593, 0.3139,-0.0711, 1.2469, 0.0317, 1.9004,-1.2299, 0.6574
09-Sep-2020 10:52:48.205, 0.3398, 0.9338, 0.2626,-0.0683, 1.3992, 0.0226, 1.9141,-1.2293, 0.6589
09-Sep-2020 10:52:48.215, 0.3235, 0.9116, 0.2049,-0.0783, 1.4509, 0.0307, 1.9294,-1.2288, 0.6604
09-Sep-2020 10:52:48.225, 0.3051, 0.8993, 0.1532,-0.0972, 1.4239, 0.0293, 1.9454,-1.2282, 0.6621
09-Sep-2020 10:52:48.235, 0.2856, 0.9019, 0.1049,-0.1156, 1.3350, 0.0192, 1.9615,-1.2276, 0.6642
09-Sep-2020 10:52:48.245, 0.2736, 0.9115, 0.0607,-0.1214, 1.1920, 0.0043, 1.9773,-1.2269, 0.6670
09-Sep-2020 10:52:48.255, 0.2669, 0.9196, 0.0239,-0.1092, 1.0367,-0.0058, 1.9920,-1.2263, 0.6700
09-Sep-2020 10:52:48.265, 0.2568, 0.9227, 0.0049,-0.1092, 1.0367,-0.0058, 2.0049,-1.2259, 0.6727
09-Sep-2020 10:52:48.275, 0.2490, 0.9137,-0.0096, 0.0411, 0.6976,-0.0100, 2.0148,-1.2257, 0.6741
09-Sep-2020 10:52:48.285, 0.2471, 0.9040,-0.0127, 0.1683, 0.5063, 0.0089, 2.0206,-1.2259, 0.6728
09-Sep-2020 10:52:48.295, 0.2572, 0.9037, 0.0022, 0.2702, 0.2744, 0.0184, 2.0211,-1.2265, 0.6681
09-Sep-2020 10:52:48.305, 0.2725, 0.9184, 0.0477, 0.3077, 0.0393, 0.0112, 2.0168,-1.2275, 0.6606
09-Sep-2020 10:52:48.316, 0.3036, 0.9396, 0.1141, 0.2919,-0.1831, 0.0170, 2.0091,-1.2286, 0.6521
09-Sep-2020 10:52:48.325, 0.3486, 0.9578, 0.1723, 0.2400,-0.4327, 0.0388, 1.9996,-1.2296, 0.6439
09-Sep-2020 10:52:48.335, 0.3992, 0.9662, 0.2253, 0.1521,-0.5567, 0.0783, 1.9887,-1.2301, 0.6368
09-Sep-2020 10:52:48.345, 0.4331, 0.9698, 0.2875, 0.0526,-0.5932, 0.1253, 1.9783,-1.2300, 0.6315
09-Sep-2020 10:52:48.354, 0.4505, 0.9645, 0.3148,-0.0466,-0.4704, 0.1738, 1.9696,-1.2290, 0.6284
09-Sep-2020 10:52:48.364, 0.4502, 0.9484, 0.3228,-0.1060,-0.2462, 0.2063, 1.9641,-1.2271, 0.6275
09-Sep-2020 10:52:48.374, 0.4355, 0.9127, 0.2835,-0.0969, 0.0295, 0.2330, 1.9619,-1.2248, 0.6277
09-Sep-2020 10:52:48.385, 0.4186, 0.8852, 0.2338,-0.0211, 0.2960, 0.2504, 1.9620,-1.2222, 0.6275
09-Sep-2020 10:52:48.394, 0.4075, 0.8813, 0.1920, 0.0782, 0.5165, 0.2538, 1.9626,-1.2198, 0.6250
09-Sep-2020 10:52:48.404, 0.4003, 0.8936, 0.1543, 0.1839, 0.6848, 0.2595, 1.9629,-1.2177, 0.6199
09-Sep-2020 10:52:48.414, 0.3886, 0.9150, 0.1229, 0.2777, 0.7897, 0.2580, 1.9623,-1.2160, 0.6121
09-Sep-2020 10:52:48.424, 0.3698, 0.9416, 0.0934, 0.3665, 0.8045, 0.2538, 1.9605,-1.2146, 0.6018
09-Sep-2020 10:52:48.434, 0.3436, 0.9701, 0.0706, 0.4540, 0.7198, 0.2289, 1.9567,-1.2136, 0.5893
09-Sep-2020 10:52:48.444, 0.3113, 0.9927, 0.0620, 0.5477, 0.6056, 0.1759, 1.9501,-1.2132, 0.5747
09-Sep-2020 10:52:48.454, 0.2727, 1.0144, 0.0804, 0.6389, 0.5144, 0.0969, 1.9407,-1.2135, 0.5582
09-Sep-2020 10:52:48.464, 0.2421, 1.0285, 0.1152, 0.7055, 0.4551, 0.0210, 1.9289,-1.2148, 0.5400
09-Sep-2020 10:52:48.474, 0.2256, 1.0317, 0.1805, 0.7121, 0.4785,-0.0406, 1.9154,-1.2169, 0.5208
09-Sep-2020 10:52:48.484, 0.2171, 1.0310, 0.2589, 0.6367, 0.5516,-0.0887, 1.9023,-1.2196, 0.5018
09-Sep-2020 10:52:48.493, 0.2128, 1.0231, 0.3388, 0.5186, 0.7135,-0.1260, 1.8921,-1.2224, 0.4850
09-Sep-2020 10:52:48.504, 0.2166, 1.0010, 0.3829, 0.3875, 0.9020,-0.1403, 1.8866,-1.2251, 0.4716
09-Sep-2020 10:52:48.514, 0.2265, 0.9691, 0.3778, 0.2842, 1.0525,-0.1485, 1.8863,-1.2275, 0.4618
09-Sep-2020 10:52:48.523, 0.2439, 0.9399, 0.3234, 0.2103, 1.1237,-0.1448, 1.8902,-1.2298, 0.4550
09-Sep-2020 10:52:48.533, 0.2677, 0.9236, 0.2547, 0.1583, 1.1025,-0.1257, 1.8968,-1.2317, 0.4502
09-Sep-2020 10:52:48.544, 0.2821, 0.9221, 0.1918, 0.1396, 1.0074,-0.1088, 1.9044,-1.2334, 0.4467
09-Sep-2020 10:52:48.553, 0.2843, 0.9269, 0.1362, 0.1220, 0.8361,-0.0925, 1.9115,-1.2348, 0.4437
09-Sep-2020 10:52:48.563, 0.2781, 0.9267, 0.0947, 0.1039, 0.6429,-0.0693, 1.9173,-1.2360, 0.4410
09-Sep-2020 10:52:48.573, 0.2590, 0.9165, 0.0660, 0.0964, 0.4264,-0.0398, 1.9214,-1.2370, 0.4386
09-Sep-2020 10:52:48.583, 0.2332, 0.8952, 0.0342, 0.1039, 0.1913,-0.0201, 1.9232,-1.2376, 0.4360
09-Sep-2020 10:52:48.593, 0.1947, 0.8732, 0.0234, 0.1200,-0.0109,-0.0338, 1.9224,-1.2381, 0.4331
09-Sep-2020 10:52:48.603, 0.1451, 0.8550, 0.0246, 0.1293,-0.1867,-0.0748, 1.9192,-1.2388, 0.4299
09-Sep-2020 10:52:48.613, 0.1051, 0.8389, 0.0366, 0.1085,-0.3128,-0.1444, 1.9145,-1.2399, 0.4268
09-Sep-2020 10:52:48.623, 0.0882, 0.8237, 0.0589, 0.0586,-0.3830,-0.1924, 1.9097,-1.2415, 0.4251
09-Sep-2020 10:52:48.633, 0.0893, 0.8059, 0.0803, 0.0158,-0.4062,-0.2054, 1.9060,-1.2435, 0.4251
09-Sep-2020 10:52:48.643, 0.1001, 0.7904, 0.1038, 0.0183,-0.3580,-0.1791, 1.9032,-1.2454, 0.4264
09-Sep-2020 10:52:48.653, 0.1188, 0.7875, 0.1340, 0.0556,-0.2232,-0.1487, 1.9007,-1.2471, 0.4274
09-Sep-2020 10:52:48.663, 0.1419, 0.8033, 0.1553, 0.1076,-0.0279,-0.1494, 1.8981,-1.2486, 0.4270
09-Sep-2020 10:52:48.673, 0.1723, 0.8359, 0.1671, 0.1486, 0.2113,-0.1957, 1.8961,-1.2503, 0.4252
09-Sep-2020 10:52:48.683, 0.2337, 0.8527, 0.1651, 0.1852, 0.4571,-0.2213, 1.8957,-1.2526, 0.4226
09-Sep-2020 10:52:48.693, 0.3151, 0.8484, 0.1474, 0.2237, 0.6851,-0.1810, 1.8969,-1.2552, 0.4190
09-Sep-2020 10:52:48.703, 0.3960, 0.8427, 0.1325, 0.2699, 0.8916,-0.0929, 1.8987,-1.2575, 0.4138
09-Sep-2020 10:52:48.713, 0.4479, 0.8444, 0.1289, 0.3161, 1.0355,-0.0051, 1.9004,-1.2592, 0.4063
09-Sep-2020 10:52:48.722, 0.4777, 0.8493, 0.1248, 0.3550, 1.0782, 0.0448, 1.9013,-1.2602, 0.3965
09-Sep-2020 10:52:48.732, 0.4875, 0.8695, 0.1236, 0.3881, 1.1067, 0.0318, 1.9011,-1.2609, 0.3850
09-Sep-2020 10:52:48.743, 0.4751, 0.9166, 0.1331, 0.4456, 1.1737,-0.0125, 1.9002,-1.2618, 0.3725
09-Sep-2020 10:52:48.752, 0.4509, 0.9613, 0.1195, 0.5215, 1.2518, 0.0036, 1.8985,-1.2633, 0.3585
09-Sep-2020 10:52:48.762, 0.4304, 0.9906, 0.1064, 0.5631, 1.3511, 0.0614, 1.8953,-1.2648, 0.3420
09-Sep-2020 10:52:48.772, 0.3978, 1.0397, 0.0984, 0.5459, 1.4482, 0.0808, 1.8912,-1.2660, 0.3237
09-Sep-2020 10:52:48.782, 0.3700, 1.0894, 0.0788, 0.5023, 1.4561, 0.0604, 1.8882,-1.2669, 0.3055
09-Sep-2020 10:52:48.792, 0.3488, 1.1240, 0.0437, 0.4438, 1.3078, 0.0263, 1.8867,-1.2678, 0.2888
09-Sep-2020 10:52:48.802, 0.3254, 1.1335, 0.0147, 0.3963, 1.0338,-0.0034, 1.8857,-1.2689, 0.2742
09-Sep-2020 10:52:48.812, 0.2994, 1.1152, 0.0033, 0.3899, 0.6584, 0.0110, 1.8835,-1.2701, 0.2613
09-Sep-2020 10:52:48.822, 0.2686, 1.0769,-0.0023, 0.4011, 0.2696, 0.0455, 1.8778,-1.2711, 0.2484
09-Sep-2020 10:52:48.832, 0.2343, 1.0267, 0.0295, 0.3708,-0.0468, 0.0766, 1.8676,-1.2718, 0.2350
09-Sep-2020 10:52:48.842, 0.2119, 0.9789, 0.0817, 0.2971,-0.2498, 0.1059, 1.8550,-1.2720, 0.2221
09-Sep-2020 10:52:48.852, 0.1898, 0.9501, 0.1330, 0.2133,-0.3486, 0.1223, 1.8422,-1.2718, 0.2113
09-Sep-2020 10:52:48.862, 0.1766, 0.9410, 0.1732, 0.1428,-0.3821, 0.1106, 1.8309,-1.2711, 0.2031
09-Sep-2020 10:52:48.872, 0.1736, 0.9554, 0.1736, 0.1092,-0.3557, 0.0833, 1.8215,-1.2703, 0.1972
09-Sep-2020 10:52:48.882, 0.1771, 0.9818, 0.1811, 0.0965,-0.2301, 0.0410, 1.8137,-1.2697, 0.1928
09-Sep-2020 10:52:48.892, 0.1922, 1.0037, 0.1856, 0.0858,-0.0297,-0.0103, 1.8080,-1.2695, 0.1891
09-Sep-2020 10:52:48.902, 0.2253, 1.0065, 0.1812, 0.0782, 0.1998,-0.0258, 1.8049,-1.2697, 0.1862
09-Sep-2020 10:52:48.912, 0.2663, 0.9921, 0.1518, 0.1000, 0.4354,-0.0413, 1.8044,-1.2701, 0.1836
09-Sep-2020 10:52:48.922, 0.2796, 0.9724, 0.1047, 0.1412, 0.6244,-0.0577, 1.8057,-1.2707, 0.1805
09-Sep-2020 10:52:48.932, 0.2921, 0.9582, 0.0574, 0.1792, 0.7431,-0.0832, 1.8077,-1.2715, 0.1761
09-Sep-2020 10:52:48.942, 0.3032, 0.9512, 0.0180, 0.2205, 0.7590,-0.1078, 1.8098,-1.2727, 0.1707
09-Sep-2020 10:52:48.952, 0.3158, 0.9514,-0.0182, 0.2519, 0.6741,-0.1230, 1.8110,-1.2741, 0.1641
09-Sep-2020 10:52:48.962, 0.3183, 0.9575,-0.0406, 0.2695, 0.5257,-0.1279, 1.8105,-1.2759, 0.1565
09-Sep-2020 10:52:48.971, 0.3049, 0.9664,-0.0506, 0.2888, 0.3697,-0.1392, 1.8079,-1.2777, 0.1484
09-Sep-2020 10:52:48.981, 0.2923, 0.9740,-0.0517, 0.3224, 0.2446,-0.1485, 1.8031,-1.2796, 0.1396
09-Sep-2020 10:52:48.991, 0.2812, 0.9758,-0.0379, 0.3663, 0.1763,-0.1566, 1.7960,-1.2817, 0.1296
09-Sep-2020 10:52:49.002, 0.2755, 0.9707,-0.0101, 0.4167, 0.1628,-0.1474, 1.7868,-1.2840, 0.1181
09-Sep-2020 10:52:49.011, 0.2666, 0.9626, 0.0319, 0.4549, 0.1890,-0.1400, 1.7755,-1.2862, 0.1047
09-Sep-2020 10:52:49.021, 0.2579, 0.9545, 0.0835, 0.4604, 0.2819,-0.1332, 1.7630,-1.2884, 0.0897
09-Sep-2020 10:52:49.031, 0.2547, 0.9580, 0.1348, 0.4307, 0.4052,-0.1277, 1.7510,-1.2905, 0.0742
09-Sep-2020 10:52:49.041, 0.2546, 0.9646, 0.1633, 0.3894, 0.5434,-0.1172, 1.7410,-1.2924, 0.0596
09-Sep-2020 10:52:49.051, 0.2548, 0.9669, 0.1678, 0.3295, 0.6503,-0.1028, 1.7335,-1.2942, 0.0462
09-Sep-2020 10:52:49.061, 0.2528, 0.9700, 0.1514, 0.2481, 0.7078,-0.0856, 1.7289,-1.2957, 0.0348
09-Sep-2020 10:52:49.071, 0.2609, 0.9702, 0.1101, 0.1950, 0.6889,-0.0618, 1.7275,-1.2968, 0.0260
09-Sep-2020 10:52:49.081, 0.2629, 0.9677, 0.0613, 0.1659, 0.5910,-0.0462, 1.7275,-1.2977, 0.0190
09-Sep-2020 10:52:49.091, 0.2621, 0.9679, 0.0260, 0.1510, 0.4613,-0.0250, 1.7275,-1.2983, 0.0130
09-Sep-2020 10:52:49.101, 0.2639, 0.9642, 0.0037, 0.1430, 0.3247, 0.0021, 1.7267,-1.2987, 0.0074
09-Sep-2020 10:52:49.111, 0.2608, 0.9623,-0.0068, 0.1337, 0.2279, 0.0228, 1.7247,-1.2988, 0.0019
09-Sep-2020 10:52:49.121, 0.2570, 0.9639,-0.0049, 0.1254, 0.1745, 0.0361, 1.7220,-1.2988,-0.0033
09-Sep-2020 10:52:49.130, 0.2586, 0.9626, 0.0014, 0.1269, 0.1703, 0.0498, 1.7189,-1.2985,-0.0083
09-Sep-2020 10:52:49.140, 0.2507, 0.9622, 0.0052, 0.1500, 0.1808, 0.0543, 1.7157,-1.2982,-0.0134
09-Sep-2020 10:52:49.151, 0.2390, 0.9638, 0.0121, 0.1700, 0.1872, 0.0387, 1.7118,-1.2978,-0.0193
09-Sep-2020 10:52:49.161, 0.2346, 0.9635, 0.0240, 0.1633, 0.2052, 0.0371, 1.7074,-1.2976,-0.0258
09-Sep-2020 10:52:49.170, 0.2315, 0.9649, 0.0317, 0.1505, 0.2112, 0.0367, 1.7033,-1.2973,-0.0321
09-Sep-2020 10:52:49.181, 0.2260, 0.9720, 0.0345, 0.1306, 0.2044, 0.0370, 1.6998,-1.2971,-0.0379
09-Sep-2020 10:52:49.190, 0.2266, 0.9753, 0.0281, 0.1141, 0.1808, 0.0439, 1.6969,-1.2968,-0.0430
09-Sep-2020 10:52:49.200, 0.2260, 0.9752, 0.0188, 0.0998, 0.1374, 0.0512, 1.6944,-1.2965,-0.0475
09-Sep-2020 10:52:49.210, 0.2224, 0.9729, 0.0079, 0.0946, 0.0805, 0.0588, 1.6918,-1.2960,-0.0515
09-Sep-2020 10:52:49.220, 0.2156, 0.9709, 0.0089, 0.0981, 0.0164, 0.0668, 1.6889,-1.2955,-0.0554
09-Sep-2020 10:52:49.230, 0.2072, 0.9754, 0.0184, 0.0933,-0.0443, 0.0677, 1.6852,-1.2949,-0.0594
09-Sep-2020 10:52:49.240, 0.1957, 0.9837, 0.0352, 0.0823,-0.0703, 0.0602, 1.6811,-1.2942,-0.0632
09-Sep-2020 10:52:49.250, 0.1856, 0.9913, 0.0597, 0.0595,-0.0697, 0.0530, 1.6771,-1.2938,-0.0666
09-Sep-2020 10:52:49.260, 0.1801, 0.9934, 0.0784, 0.0437,-0.0496, 0.0502, 1.6740,-1.2933,-0.0692
09-Sep-2020 10:52:49.270, 0.1713, 0.9886, 0.0892, 0.0215,-0.0232, 0.0473, 1.6717,-1.2929,-0.0711
09-Sep-2020 10:52:49.280, 0.1696, 0.9846, 0.0845,-0.0079,-0.0200, 0.0381, 1.6704,-1.2926,-0.0721
09-Sep-2020 10:52:49.290, 0.1750, 0.9856, 0.0634,-0.0332,-0.0423, 0.0266, 1.6700,-1.2923,-0.0722
09-Sep-2020 10:52:49.300, 0.1848, 0.9899, 0.0370,-0.0512,-0.0810, 0.0075, 1.6703,-1.2921,-0.0715
09-Sep-2020 10:52:49.309, 0.1968, 0.9931, 0.0154,-0.0632,-0.1252,-0.0057, 1.6708,-1.2920,-0.0700
09-Sep-2020 10:52:49.320, 0.2072, 0.9912,-0.0010,-0.0619,-0.1758,-0.0231, 1.6715,-1.2922,-0.0680
09-Sep-2020 10:52:49.330, 0.2168, 0.9860,-0.0123,-0.0344,-0.2420,-0.0342, 1.6719,-1.2925,-0.0658
09-Sep-2020 10:52:49.339, 0.2298, 0.9833,-0.0153, 0.0107,-0.3221,-0.0411, 1.6710,-1.2930,-0.0643
09-Sep-2020 10:52:49.349, 0.2428, 0.9761,-0.0048, 0.0429,-0.3983,-0.0373, 1.6680,-1.2936,-0.0641
09-Sep-2020 10:52:49.359, 0.2562, 0.9691, 0.0165, 0.0371,-0.4333,-0.0300, 1.6633,-1.2942,-0.0649
09-Sep-2020 10:52:49.369, 0.2708, 0.9626, 0.0420, 0.0099,-0.4254,-0.0184, 1.6584,-1.2948,-0.0656
09-Sep-2020 10:52:49.379, 0.2849, 0.9573, 0.0657,-0.0296,-0.3787, 0.0007, 1.6543,-1.2951,-0.0655
09-Sep-2020 10:52:49.389, 0.3003, 0.9622, 0.0774,-0.0566,-0.3300, 0.0236, 1.6515,-1.2953,-0.0645
09-Sep-2020 10:52:49.399, 0.3151, 0.9682, 0.0749,-0.0775,-0.2903, 0.0435, 1.6499,-1.2951,-0.0627
09-Sep-2020 10:52:49.409, 0.3279, 0.9690, 0.0673,-0.0980,-0.2723, 0.0727, 1.6492,-1.2948,-0.0604
09-Sep-2020 10:52:49.419, 0.3372, 0.9659, 0.0559,-0.1300,-0.2811, 0.1062, 1.6492,-1.2941,-0.0575
09-Sep-2020 10:52:49.429, 0.3437, 0.9633, 0.0506,-0.1733,-0.3050, 0.1425, 1.6502,-1.2930,-0.0536
09-Sep-2020 10:52:49.439, 0.3493, 0.9673, 0.0469,-0.2241,-0.3540, 0.1804, 1.6523,-1.2914,-0.0482
09-Sep-2020 10:52:49.449, 0.3567, 0.9831, 0.0434,-0.2730,-0.4374, 0.2153, 1.6558,-1.2894,-0.0408
09-Sep-2020 10:52:49.459, 0.3617, 1.0081, 0.0403,-0.3188,-0.5493, 0.2432, 1.6600,-1.2870,-0.0319
09-Sep-2020 10:52:49.469, 0.3601, 1.0429, 0.0373,-0.3585,-0.6671, 0.2511, 1.6644,-1.2842,-0.0216
09-Sep-2020 10:52:49.479, 0.3501, 1.0711, 0.0351,-0.3786,-0.8034, 0.2523, 1.6688,-1.2813,-0.0101
09-Sep-2020 10:52:49.488, 0.3255, 1.0713, 0.0399,-0.4012,-0.9621, 0.2599, 1.6723,-1.2784, 0.0020
09-Sep-2020 10:52:49.499, 0.2873, 1.0467, 0.0483,-0.4111,-1.1536, 0.2786, 1.6748,-1.2753, 0.0146
09-Sep-2020 10:52:49.509, 0.2510, 1.0202, 0.0511,-0.3637,-1.4108, 0.2870, 1.6753,-1.2721, 0.0272
09-Sep-2020 10:52:49.519, 0.2158, 0.9986, 0.0341,-0.1785,-1.7556, 0.2627, 1.6714,-1.2688, 0.0379
09-Sep-2020 10:52:49.528, 0.1926, 0.9665, 0.0278,-0.0757,-2.0832, 0.2501, 1.6589,-1.2659, 0.0431
09-Sep-2020 10:52:49.538, 0.1880, 0.9263, 0.0840,-0.1812,-2.2477, 0.2887, 1.6403,-1.2633, 0.0452
09-Sep-2020 10:52:49.548, 0.1871, 0.9113, 0.1173,-0.2681,-2.1663, 0.3745, 1.6230,-1.2602, 0.0504
09-Sep-2020 10:52:49.558, 0.1782, 0.9008, 0.0872,-0.2082,-1.8577, 0.4505, 1.6088,-1.2563, 0.0581
09-Sep-2020 10:52:49.568, 0.1635, 0.8584, 0.0767,-0.1950,-1.4547, 0.4873, 1.5963,-1.2517, 0.0642
09-Sep-2020 10:52:49.578, 0.1602, 0.8049, 0.0805,-0.2730,-1.0707, 0.4814, 1.5874,-1.2468, 0.0701
09-Sep-2020 10:52:49.588, 0.1645, 0.7827, 0.0606,-0.3772,-0.7827, 0.4309, 1.5845,-1.2419, 0.0784
09-Sep-2020 10:52:49.598, 0.1853, 0.7847, 0.0294,-0.4224,-0.5665, 0.3588, 1.5872,-1.2375, 0.0895
09-Sep-2020 10:52:49.608, 0.2299, 0.7900, 0.0007,-0.3533,-0.3843, 0.2874, 1.5930,-1.2338, 0.1018
09-Sep-2020 10:52:49.618, 0.2678, 0.7881,-0.0234,-0.1941,-0.1805, 0.2330, 1.5986,-1.2307, 0.1118
09-Sep-2020 10:52:49.629, 0.2924, 0.7810,-0.0347,-0.0382, 0.0338, 0.2013, 1.6020,-1.2283, 0.1172
09-Sep-2020 10:52:49.638, 0.3078, 0.7916,-0.0360,-0.0382, 0.0338, 0.2013, 1.6031,-1.2262, 0.1181
09-Sep-2020 10:52:49.648, 0.3079, 0.8335,-0.0334, 0.1458, 0.4339, 0.1143, 1.6033,-1.2245, 0.1155
09-Sep-2020 10:52:49.658, 0.3027, 0.8939,-0.0354, 0.1378, 0.5276,-0.0099, 1.6035,-1.2233, 0.1112
09-Sep-2020 10:52:49.668, 0.2997, 0.9711,-0.0109, 0.0626, 0.5346,-0.1760, 1.6049,-1.2234, 0.1072
09-Sep-2020 10:52:49.678, 0.2988, 1.0538, 0.0132,-0.0351, 0.3870,-0.3160, 1.6085,-1.2251, 0.1054
09-Sep-2020 10:52:49.688, 0.3002, 1.1341, 0.0222,-0.1095, 0.1488,-0.3868, 1.6134,-1.2281, 0.1067
09-Sep-2020 10:52:49.698, 0.3023, 1.1815, 0.0332,-0.1443,-0.0661,-0.3726, 1.6183,-1.2318, 0.1103
09-Sep-2020 10:52:49.708, 0.3062, 1.1662, 0.0391,-0.1347,-0.1667,-0.2781, 1.6221,-1.2353, 0.1149
09-Sep-2020 10:52:49.718, 0.3040, 1.1053, 0.0376,-0.0933,-0.1197,-0.2095, 1.6246,-1.2379, 0.1193
09-Sep-2020 10:52:49.727, 0.2844, 1.0373, 0.0206,-0.0249, 0.0121,-0.2163, 1.6264,-1.2399, 0.1224
09-Sep-2020 10:52:49.738, 0.2764, 0.9840, 0.0072, 0.0667, 0.1747,-0.2427, 1.6274,-1.2420, 0.1234
09-Sep-2020 10:52:49.747, 0.2943, 0.9481,-0.0025, 0.1552, 0.3449,-0.2939, 1.6275,-1.2444, 0.1216
09-Sep-2020 10:52:49.757, 0.3202, 0.9300,-0.0077, 0.1985, 0.4112,-0.3445, 1.6268,-1.2473, 0.1173
09-Sep-2020 10:52:49.767, 0.3515, 0.9115, 0.0054, 0.1842, 0.4194,-0.3466, 1.6255,-1.2508, 0.1117
09-Sep-2020 10:52:49.777, 0.3715, 0.8899, 0.0251, 0.1548, 0.4141,-0.3231, 1.6246,-1.2542, 0.1064
09-Sep-2020 10:52:49.788, 0.3881, 0.8709, 0.0159, 0.1808, 0.3666,-0.2925, 1.6243,-1.2574, 0.1018
09-Sep-2020 10:52:49.797, 0.4044, 0.8513,-0.0127, 0.2620, 0.2878,-0.2562, 1.6226,-1.2604, 0.0962
09-Sep-2020 10:52:49.807, 0.4292, 0.8363,-0.0240, 0.3320, 0.2898,-0.2079, 1.6176,-1.2630, 0.0879
09-Sep-2020 10:52:49.817, 0.4478, 0.8362,-0.0033, 0.3357, 0.4060,-0.1547, 1.6105,-1.2651, 0.0773
09-Sep-2020 10:52:49.827, 0.4649, 0.8494, 0.0194, 0.3183, 0.5725,-0.1112, 1.6040,-1.2667, 0.0663
09-Sep-2020 10:52:49.837, 0.4845, 0.8661, 0.0213, 0.3226, 0.7608,-0.0719, 1.5996,-1.2678, 0.0557
09-Sep-2020 10:52:49.847, 0.5004, 0.8897, 0.0074, 0.3648, 0.9574,-0.0513, 1.5967,-1.2685, 0.0447
09-Sep-2020 10:52:49.857, 0.4948, 0.9189,-0.0091, 0.4346, 1.1269,-0.0909, 1.5944,-1.2691, 0.0324
09-Sep-2020 10:52:49.867, 0.4747, 0.9339,-0.0433, 0.5100, 1.2399,-0.1474, 1.5917,-1.2701, 0.0178
09-Sep-2020 10:52:49.881, 0.4638, 0.9338,-0.0678, 0.5805, 1.3241,-0.1871, 1.5875,-1.2715, 0.0006
09-Sep-2020 10:52:49.887, 0.4528, 0.9285,-0.0760, 0.6023, 1.3103,-0.1620, 1.5819,-1.2734,-0.0190
09-Sep-2020 10:52:49.897, 0.4377, 0.9270,-0.0919, 0.5570, 1.0969,-0.1041, 1.5754,-1.2749,-0.0394
09-Sep-2020 10:52:49.907, 0.4211, 0.9322,-0.1035, 0.4444, 0.7917,-0.0491, 1.5681,-1.2759,-0.0583
09-Sep-2020 10:52:49.917, 0.3730, 0.9553,-0.0563, 0.3325, 0.5359,-0.0414, 1.5613,-1.2763,-0.0737
09-Sep-2020 10:52:49.927, 0.3136, 0.9753,-0.0209, 0.2722, 0.2850,-0.0533, 1.5555,-1.2766,-0.0853
09-Sep-2020 10:52:49.937, 0.2878, 0.9743,-0.0184, 0.2408, 0.0868,-0.0587, 1.5492,-1.2770,-0.0949
09-Sep-2020 10:52:49.947, 0.2853, 0.9652,-0.0117, 0.1890, 0.0030,-0.0687, 1.5421,-1.2774,-0.1033
09-Sep-2020 10:52:49.957, 0.2831, 0.9603,-0.0061, 0.1653, 0.0719,-0.1274, 1.5357,-1.2780,-0.1101
09-Sep-2020 10:52:49.966, 0.2937, 0.9569,-0.0114, 0.2129, 0.2800,-0.2113, 1.5305,-1.2791,-0.1163
09-Sep-2020 10:52:49.976, 0.3301, 0.9527,-0.0202, 0.2918, 0.5975,-0.2716, 1.5259,-1.2811,-0.1241
09-Sep-2020 10:52:49.986, 0.3751, 0.9488,-0.0249, 0.3815, 0.9298,-0.3005, 1.5215,-1.2835,-0.1349
09-Sep-2020 10:52:49.996, 0.4165, 0.9546,-0.0418, 0.4778, 1.1807,-0.3118, 1.5171,-1.2862,-0.1490
09-Sep-2020 10:52:50.006, 0.4523, 0.9705,-0.0619, 0.5653, 1.3156,-0.3147, 1.5117,-1.2890,-0.1668
09-Sep-2020 10:52:50.016, 0.4621, 0.9854,-0.0725, 0.6071, 1.3459,-0.2875, 1.5046,-1.2917,-0.1878
09-Sep-2020 10:52:50.026, 0.4346, 0.9821,-0.0645, 0.5747, 1.2853,-0.2633, 1.4961,-1.2940,-0.2104
09-Sep-2020 10:52:50.036, 0.3876, 0.9759,-0.0489, 0.4816, 1.1764,-0.2442, 1.4880,-1.2961,-0.2321
09-Sep-2020 10:52:50.046, 0.3535, 0.9734,-0.0415, 0.3708, 1.0491,-0.2016, 1.4819,-1.2981,-0.2506
09-Sep-2020 10:52:50.056, 0.3217, 0.9717,-0.0498, 0.2912, 0.9344,-0.1488, 1.4783,-1.2996,-0.2651
09-Sep-2020 10:52:50.066, 0.2746, 0.9708,-0.0661, 0.2431, 0.8458,-0.1055, 1.4766,-1.3008,-0.2766
09-Sep-2020 10:52:50.076, 0.2248, 0.9794,-0.0809, 0.2085, 0.7724,-0.0848, 1.4757,-1.3015,-0.2862
09-Sep-2020 10:52:50.086, 0.1581, 0.9872,-0.0856, 0.1735, 0.7085,-0.0924, 1.4755,-1.3021,-0.2944
09-Sep-2020 10:52:50.097, 0.0849, 0.9829,-0.0886, 0.1482, 0.6072,-0.1233, 1.4758,-1.3028,-0.3014
09-Sep-2020 10:52:50.106,-0.0028, 0.9769,-0.0923, 0.1413, 0.4821,-0.1761, 1.4758,-1.3038,-0.3076
09-Sep-2020 10:52:50.116,-0.0835, 0.9841,-0.0838, 0.1262, 0.3380,-0.2213, 1.4748,-1.3054,-0.3136
09-Sep-2020 10:52:50.126,-0.1494, 1.0107,-0.0648, 0.0923, 0.2117,-0.2485, 1.4727,-1.3073,-0.3193
09-Sep-2020 10:52:50.136,-0.1875, 1.0377,-0.0505, 0.0567, 0.0353,-0.2201, 1.4703,-1.3096,-0.3239
09-Sep-2020 10:52:50.146,-0.1971, 1.0603,-0.0656, 0.0394,-0.1482,-0.2260, 1.4675,-1.3117,-0.3272
09-Sep-2020 10:52:50.156,-0.2484, 1.1153,-0.0505,-0.0172,-0.2876,-0.2961, 1.4635,-1.3138,-0.3297
09-Sep-2020 10:52:50.166,-0.2545, 1.1564,-0.0343,-0.1194,-0.3699,-0.3183, 1.4602,-1.3167,-0.3302
09-Sep-2020 10:52:50.176,-0.1908, 1.1525,-0.0134,-0.1988,-0.4819,-0.2124, 1.4596,-1.3198,-0.3270
09-Sep-2020 10:52:50.185,-0.0714, 1.1167,-0.0170,-0.2730,-0.7136,-0.0520, 1.4614,-1.3220,-0.3200
09-Sep-2020 10:52:50.195, 0.0265, 1.0754,-0.0157,-0.3879,-0.9464,-0.0048, 1.4647,-1.3228,-0.3093
09-Sep-2020 10:52:50.205, 0.0853, 1.0375, 0.0038,-0.5161,-1.1207, 0.0110, 1.4704,-1.3232,-0.2938
09-Sep-2020 10:52:50.215, 0.1591, 1.0203,-0.0055,-0.6200,-1.2644, 0.0425, 1.4793,-1.3235,-0.2731
09-Sep-2020 10:52:50.225, 0.2066, 1.0128,-0.0219,-0.6986,-1.3753, 0.0706, 1.4911,-1.3235,-0.2480
09-Sep-2020 10:52:50.235, 0.2349, 0.9906,-0.0319,-0.7542,-1.4299, 0.0967, 1.5049,-1.3233,-0.2196
09-Sep-2020 10:52:50.245, 0.2474, 0.9579,-0.0374,-0.7594,-1.4109, 0.1115, 1.5203,-1.3227,-0.1890
09-Sep-2020 10:52:50.255, 0.2587, 0.9347,-0.0448,-0.7119,-1.3340, 0.1127, 1.5360,-1.3218,-0.1584
09-Sep-2020 10:52:50.265, 0.2744, 0.9151,-0.0453,-0.6501,-1.1984, 0.1196, 1.5505,-1.3208,-0.1297
09-Sep-2020 10:52:50.275, 0.3027, 0.8868,-0.0396,-0.5814,-1.0166, 0.1345, 1.5639,-1.3196,-0.1037
09-Sep-2020 10:52:50.285, 0.3312, 0.8884,-0.0373,-0.5162,-0.8233, 0.1540, 1.5761,-1.3182,-0.0806
09-Sep-2020 10:52:50.295, 0.3673, 0.9157,-0.0401,-0.4343,-0.6513, 0.1510, 1.5875,-1.3166,-0.0604
09-Sep-2020 10:52:50.305, 0.3981, 0.9437,-0.0449,-0.3431,-0.5258, 0.1225, 1.5973,-1.3149,-0.0436
09-Sep-2020 10:52:50.315, 0.4185, 0.9742,-0.0448,-0.2668,-0.4249, 0.0866, 1.6048,-1.3135,-0.0304
09-Sep-2020 10:52:50.325, 0.4321, 0.9952,-0.0350,-0.2325,-0.3406, 0.0510, 1.6104,-1.3125,-0.0202
09-Sep-2020 10:52:50.335, 0.4364, 0.9911,-0.0236,-0.2273,-0.2986, 0.0370, 1.6155,-1.3118,-0.0114
09-Sep-2020 10:52:50.345, 0.4263, 0.9660,-0.0201,-0.2429,-0.2901, 0.0523, 1.6208,-1.3112,-0.0027
09-Sep-2020 10:52:50.355, 0.3954, 0.9361,-0.0165,-0.2671,-0.2969, 0.0796, 1.6268,-1.3105, 0.0064
09-Sep-2020 10:52:50.365, 0.3491, 0.9237,-0.0180,-0.2707,-0.2972, 0.0823, 1.6334,-1.3095, 0.0163
09-Sep-2020 10:52:50.375, 0.3052, 0.9239,-0.0231,-0.2445,-0.2439, 0.0749, 1.6401,-1.3084, 0.0263
09-Sep-2020 10:52:50.385, 0.2780, 0.9278,-0.0349,-0.1794,-0.1633, 0.0603, 1.6463,-1.3074, 0.0353
09-Sep-2020 10:52:50.395, 0.2673, 0.9423,-0.0489,-0.1794,-0.1633, 0.0603, 1.6510,-1.3066, 0.0417
09-Sep-2020 10:52:50.405, 0.2757, 0.9711,-0.0503, 0.0126, 0.0996, 0.0170, 1.6534,-1.3061, 0.0447
09-Sep-2020 10:52:50.415, 0.2850, 0.9845,-0.0352, 0.0846, 0.2327, 0.0090, 1.6538,-1.3059, 0.0441
09-Sep-2020 10:52:50.424, 0.2855, 0.9810,-0.0152, 0.1322, 0.3176, 0.0108, 1.6528,-1.3058, 0.0407
09-Sep-2020 10:52:50.434, 0.2818, 0.9728, 0.0077, 0.1338, 0.3347, 0.0245, 1.6510,-1.3057, 0.0356
09-Sep-2020 10:52:50.444, 0.2733, 0.9628, 0.0355, 0.0883, 0.2705, 0.0433, 1.6493,-1.3055, 0.0304
09-Sep-2020 10:52:50.454, 0.2596, 0.9533, 0.0670,-0.0158, 0.1708, 0.0641, 1.6486,-1.3051, 0.0269
09-Sep-2020 10:52:50.464, 0.2522, 0.9442, 0.0841,-0.1494, 0.0460, 0.0927, 1.6506,-1.3044, 0.0273
09-Sep-2020 10:52:50.474, 0.2510, 0.9327, 0.0922,-0.2717,-0.0743, 0.1201, 1.6561,-1.3033, 0.0325
09-Sep-2020 10:52:50.484, 0.2472, 0.9264, 0.0788,-0.3501,-0.1743, 0.1464, 1.6646,-1.3018, 0.0420
09-Sep-2020 10:52:50.494, 0.2348, 0.9302, 0.0560,-0.3900,-0.2701, 0.1522, 1.6746,-1.2999, 0.0543
09-Sep-2020 10:52:50.504, 0.2187, 0.9521, 0.0357,-0.4072,-0.3254, 0.1334, 1.6850,-1.2979, 0.0678
09-Sep-2020 10:52:50.514, 0.2014, 0.9920, 0.0241,-0.4072,-0.3254, 0.1334, 1.6954,-1.2961, 0.0820
09-Sep-2020 10:52:50.524, 0.1839, 1.0359, 0.0164,-0.4023,-0.3021, 0.0256, 1.7060,-1.2946, 0.0963
09-Sep-2020 10:52:50.534, 0.1682, 1.0667, 0.0054,-0.3550,-0.2382,-0.0453, 1.7166,-1.2937, 0.1105
09-Sep-2020 10:52:50.544, 0.1543, 1.0749,-0.0031,-0.2846,-0.1828,-0.1097, 1.7265,-1.2936, 0.1233
09-Sep-2020 10:52:50.554, 0.1562, 1.0542,-0.0101,-0.2224,-0.1395,-0.1476, 1.7350,-1.2941, 0.1340
09-Sep-2020 10:52:50.564, 0.1797, 1.0154, 0.0020,-0.1890,-0.1464,-0.1649, 1.7419,-1.2951, 0.1427
09-Sep-2020 10:52:50.574, 0.2146, 0.9743, 0.0193,-0.2057,-0.2082,-0.1672, 1.7479,-1.2963, 0.1505
09-Sep-2020 10:52:50.584, 0.2490, 0.9418, 0.0443,-0.2512,-0.2845,-0.1387, 1.7539,-1.2975, 0.1589
09-Sep-2020 10:52:50.594, 0.2845, 0.9208, 0.0694,-0.3103,-0.3485,-0.0960, 1.7606,-1.2983, 0.1688
09-Sep-2020 10:52:50.603, 0.3154, 0.9114, 0.0828,-0.3646,-0.3773,-0.0541, 1.7685,-1.2986, 0.1806
09-Sep-2020 10:52:50.613, 0.3360, 0.8959, 0.0750,-0.3983,-0.3720,-0.0095, 1.7777,-1.2983, 0.1940
09-Sep-2020 10:52:50.623, 0.3567, 0.8880, 0.0606,-0.4130,-0.3251, 0.0395, 1.7877,-1.2975, 0.2082
09-Sep-2020 10:52:50.633, 0.3647, 0.8803, 0.0371,-0.3856,-0.2510, 0.0803, 1.7982,-1.2962, 0.2225
09-Sep-2020 10:52:50.643, 0.3572, 0.8646, 0.0151,-0.3130,-0.1408, 0.1049, 1.8080,-1.2944, 0.2352
09-Sep-2020 10:52:50.653, 0.3428, 0.8634, 0.0003,-0.2063,-0.0177, 0.1161, 1.8161,-1.2926, 0.2451
09-Sep-2020 10:52:50.663, 0.3282, 0.8822,-0.0044,-0.1044, 0.0985, 0.1236, 1.8216,-1.2910, 0.2511
09-Sep-2020 10:52:50.673, 0.3028, 0.9069, 0.0162,-0.0325, 0.2128, 0.1123, 1.8249,-1.2895, 0.2535
09-Sep-2020 10:52:50.683, 0.2684, 0.9402, 0.0521, 0.0113, 0.2955, 0.0963, 1.8269,-1.2882, 0.2535
09-Sep-2020 10:52:50.693, 0.2450, 0.9795, 0.0813, 0.0533, 0.3540, 0.0774, 1.8284,-1.2873, 0.2520
09-Sep-2020 10:52:50.703, 0.2310, 1.0081, 0.1061, 0.0692, 0.3610, 0.0590, 1.8294,-1.2866, 0.2493
09-Sep-2020 10:52:50.713, 0.2171, 1.0267, 0.1265, 0.0328, 0.3081, 0.0460, 1.8300,-1.2861, 0.2463
09-Sep-2020 10:52:50.723, 0.2078, 1.0353, 0.1465,-0.0670, 0.1528, 0.0503, 1.8314,-1.2857, 0.2447
09-Sep-2020 10:52:50.733, 0.2008, 1.0283, 0.1535,-0.2229,-0.0538, 0.0613, 1.8346,-1.2850, 0.2465
09-Sep-2020 10:52:50.743, 0.1976, 1.0027, 0.1533,-0.3727,-0.2872, 0.0828, 1.8405,-1.2837, 0.2533
09-Sep-2020 10:52:50.753, 0.2059, 0.9779, 0.1391,-0.4669,-0.4802, 0.1046, 1.8487,-1.2819, 0.2647
09-Sep-2020 10:52:50.763, 0.2256, 0.9556, 0.1260,-0.5206,-0.6051, 0.1395, 1.8577,-1.2795, 0.2790
09-Sep-2020 10:52:50.773, 0.2469, 0.9338, 0.1276,-0.5502,-0.6829, 0.1772, 1.8666,-1.2766, 0.2947
09-Sep-2020 10:52:50.783, 0.2627, 0.9196, 0.1303,-0.5692,-0.7528, 0.2177, 1.8751,-1.2733, 0.3106
09-Sep-2020 10:52:50.793, 0.2755, 0.9313, 0.1298,-0.5827,-0.8249, 0.2372, 1.8828,-1.2694, 0.3265
09-Sep-2020 10:52:50.802, 0.2853, 0.9811, 0.1223,-0.5742,-0.9054, 0.2275, 1.8896,-1.2653, 0.3423
09-Sep-2020 10:52:50.812, 0.2909, 1.0421, 0.1088,-0.5566,-0.9384, 0.1873, 1.8952,-1.2614, 0.3577
09-Sep-2020 10:52:50.822, 0.2854, 1.0835, 0.1021,-0.5329,-0.8789, 0.1311, 1.9002,-1.2578, 0.3727
09-Sep-2020 10:52:50.832, 0.2716, 1.0833, 0.0892,-0.4822,-0.7313, 0.0798, 1.9054,-1.2547, 0.3873
09-Sep-2020 10:52:50.842, 0.2557, 1.0382, 0.0783,-0.3938,-0.5088, 0.0461, 1.9109,-1.2523, 0.4007
09-Sep-2020 10:52:50.852, 0.2444, 0.9855, 0.0756,-0.2801,-0.2628, 0.0040, 1.9162,-1.2506, 0.4116
09-Sep-2020 10:52:50.862, 0.2434, 0.9387, 0.0769,-0.1690,-0.0403,-0.0298, 1.9211,-1.2495, 0.4196
09-Sep-2020 10:52:50.872, 0.2577, 0.8961, 0.0796,-0.0680, 0.0981,-0.0487, 1.9255,-1.2492, 0.4247
09-Sep-2020 10:52:50.882, 0.2779, 0.8742, 0.0993,-0.0027, 0.1741,-0.0486, 1.9287,-1.2493, 0.4272
09-Sep-2020 10:52:50.892, 0.2889, 0.8689, 0.1345, 0.0080, 0.2020,-0.0388, 1.9310,-1.2497, 0.4277
09-Sep-2020 10:52:50.902, 0.2860, 0.8716, 0.1637,-0.0390, 0.1504,-0.0193, 1.9330,-1.2500, 0.4278
09-Sep-2020 10:52:50.912, 0.2829, 0.8749, 0.1756,-0.1091, 0.0489, 0.0062, 1.9356,-1.2500, 0.4290
09-Sep-2020 10:52:50.922, 0.2887, 0.8782, 0.1811,-0.1947,-0.1029, 0.0420, 1.9389,-1.2494, 0.4320
09-Sep-2020 10:52:50.932, 0.3046, 0.8801, 0.1613,-0.2828,-0.2709, 0.0744, 1.9426,-1.2483, 0.4371
09-Sep-2020 10:52:50.942, 0.3240, 0.8839, 0.1413,-0.3427,-0.4370, 0.1061, 1.9467,-1.2465, 0.4442
09-Sep-2020 10:52:50.952, 0.3462, 0.8855, 0.1200,-0.3773,-0.5824, 0.1313, 1.9504,-1.2442, 0.4527
09-Sep-2020 10:52:50.962, 0.3622, 0.8748, 0.1122,-0.4028,-0.7075, 0.1594, 1.9532,-1.2416, 0.4618
09-Sep-2020 10:52:50.972, 0.3758, 0.8542, 0.1125,-0.4329,-0.8156, 0.1922, 1.9551,-1.2386, 0.4712
09-Sep-2020 10:52:50.982, 0.3943, 0.8352, 0.1133,-0.4699,-0.9208, 0.2336, 1.9562,-1.2351, 0.4810
09-Sep-2020 10:52:50.991, 0.4182, 0.8263, 0.1167,-0.4908,-1.0291, 0.2815, 1.9567,-1.2311, 0.4912
09-Sep-2020 10:52:51.002, 0.4302, 0.8411, 0.1241,-0.5073,-1.1191, 0.3062, 1.9561,-1.2267, 0.5015
09-Sep-2020 10:52:51.011, 0.4254, 0.8730, 0.1276,-0.4777,-1.2012, 0.2878, 1.9545,-1.2219, 0.5117
09-Sep-2020 10:52:51.021, 0.4159, 0.9123, 0.1234,-0.4079,-1.2389, 0.2598, 1.9515,-1.2175, 0.5211
09-Sep-2020 10:52:51.032, 0.4128, 0.9428, 0.1327,-0.3435,-1.1906, 0.2385, 1.9466,-1.2135, 0.5290
09-Sep-2020 10:52:51.041, 0.4188, 0.9587, 0.1521,-0.3107,-1.1301, 0.2391, 1.9408,-1.2100, 0.5354
09-Sep-2020 10:52:51.051, 0.4278, 0.9749, 0.1686,-0.2944,-1.0536, 0.2310, 1.9348,-1.2066, 0.5410
09-Sep-2020 10:52:51.061, 0.4355, 0.9919, 0.1774,-0.2840,-0.9929, 0.2104, 1.9292,-1.2034, 0.5463
09-Sep-2020 10:52:51.071, 0.4439, 1.0098, 0.1675,-0.2671,-0.8988, 0.1787, 1.9242,-1.2004, 0.5514
09-Sep-2020 10:52:51.081, 0.4363, 1.0205, 0.1530,-0.2269,-0.7012, 0.1401, 1.9199,-1.1978, 0.5564
09-Sep-2020 10:52:51.091, 0.4255, 1.0140, 0.1264,-0.1233,-0.4111, 0.1075, 1.9170,-1.1956, 0.5607
09-Sep-2020 10:52:51.101, 0.4263, 0.9924, 0.0858, 0.0466,-0.1140, 0.0850, 1.9146,-1.1942, 0.5625
09-Sep-2020 10:52:51.111, 0.4428, 0.9567, 0.0464, 0.2554, 0.1982, 0.0875, 1.9114,-1.1935, 0.5603
09-Sep-2020 10:52:51.121, 0.4622, 0.9269, 0.0472, 0.4514, 0.4581, 0.0953, 1.9064,-1.1934, 0.5529
09-Sep-2020 10:52:51.131, 0.4713, 0.9037, 0.0641, 0.5802, 0.6375, 0.0903, 1.8994,-1.1939, 0.5404
09-Sep-2020 10:52:51.141, 0.4910, 0.8800, 0.0940, 0.6338, 0.7280, 0.0862, 1.8910,-1.1948, 0.5247
09-Sep-2020 10:52:51.151, 0.5074, 0.8646, 0.1195, 0.6340, 0.8086, 0.0808, 1.8823,-1.1959, 0.5076
09-Sep-2020 10:52:51.161, 0.5449, 0.8493, 0.1473, 0.5946, 0.8507, 0.1271, 1.8743,-1.1970, 0.4903
09-Sep-2020 10:52:51.171, 0.6213, 0.8239, 0.1680, 0.5000, 0.7562, 0.2325, 1.8672,-1.1974, 0.4737
09-Sep-2020 10:52:51.181, 0.6949, 0.8008, 0.1723, 0.3719, 0.4653, 0.3710, 1.8607,-1.1965, 0.4588
09-Sep-2020 10:52:51.191, 0.7655, 0.7661, 0.1565, 0.2334, 0.0751, 0.5797, 1.8535,-1.1939, 0.4461
09-Sep-2020 10:52:51.201, 0.8669, 0.7173, 0.1418, 0.1374,-0.2972, 0.8768, 1.8444,-1.1889, 0.4355
09-Sep-2020 10:52:51.211, 0.9339, 0.6825, 0.0943, 0.0943,-0.6104, 1.0759, 1.8323,-1.1808, 0.4257
09-Sep-2020 10:52:51.221, 0.8474, 0.7075, 0.0599, 0.0651,-0.7645, 1.0463, 1.8176,-1.1708, 0.4162
09-Sep-2020 10:52:51.231, 0.7158, 0.7430, 0.0728, 0.0201,-0.7184, 0.8821, 1.8029,-1.1608, 0.4083
09-Sep-2020 10:52:51.241, 0.6081, 0.7630, 0.0925, 0.0161,-0.5388, 0.7000, 1.7907,-1.1523, 0.4028
09-Sep-2020 10:52:51.250, 0.5211, 0.7987, 0.0828, 0.0907,-0.1972, 0.5218, 1.7816,-1.1454, 0.3986
09-Sep-2020 10:52:51.260, 0.4532, 0.8486, 0.1127, 0.2254, 0.2454, 0.3576, 1.7752,-1.1405, 0.3936
09-Sep-2020 10:52:51.270, 0.4041, 0.9121, 0.1127, 0.3286, 0.5803, 0.2533, 1.7712,-1.1374, 0.3866
09-Sep-2020 10:52:51.280, 0.3809, 0.9503, 0.1158, 0.3463, 0.6305, 0.2227, 1.7688,-1.1354, 0.3778
09-Sep-2020 10:52:51.290, 0.3710, 0.9602, 0.0880, 0.3001, 0.5739, 0.2629, 1.7668,-1.1338, 0.3687
09-Sep-2020 10:52:51.300, 0.3538, 0.9524, 0.0750, 0.2776, 0.5069, 0.3368, 1.7650,-1.1317, 0.3604
09-Sep-2020 10:52:51.310, 0.3479, 0.9303, 0.0388, 0.3224, 0.4598, 0.4492, 1.7628,-1.1289, 0.3524
09-Sep-2020 10:52:51.320, 0.3661, 0.9044,-0.0043, 0.4064, 0.3893, 0.5684, 1.7588,-1.1250, 0.3429
09-Sep-2020 10:52:51.330, 0.3965, 0.8902,-0.0375, 0.4779, 0.2859, 0.6495, 1.7521,-1.1202, 0.3313
09-Sep-2020 10:52:51.340, 0.4324, 0.8759,-0.0543, 0.5463, 0.1674, 0.7088, 1.7429,-1.1146, 0.3179
09-Sep-2020 10:52:51.350, 0.4769, 0.8508,-0.0666, 0.6256, 0.0481, 0.7654, 1.7312,-1.1085, 0.3030
09-Sep-2020 10:52:51.360, 0.5064, 0.8202,-0.0699, 0.7104,-0.0104, 0.8187, 1.7171,-1.1019, 0.2866
09-Sep-2020 10:52:51.370, 0.5156, 0.7983,-0.0560, 0.7890, 0.0159, 0.8474, 1.7010,-1.0947, 0.2687
09-Sep-2020 10:52:51.380, 0.5065, 0.7749,-0.0158, 0.8238, 0.1265, 0.8478, 1.6842,-1.0872, 0.2495
09-Sep-2020 10:52:51.390, 0.4813, 0.7603, 0.0380, 0.8006, 0.2442, 0.8006, 1.6684,-1.0796, 0.2302
09-Sep-2020 10:52:51.400, 0.4491, 0.7603, 0.0636, 0.7328, 0.3081, 0.7082, 1.6547,-1.0724, 0.2120
09-Sep-2020 10:52:51.409, 0.4182, 0.7688, 0.0736, 0.6450, 0.3052, 0.6096, 1.6434,-1.0659, 0.1956
09-Sep-2020 10:52:51.419, 0.3990, 0.7793, 0.0787, 0.5707, 0.3059, 0.5358, 1.6342,-1.0602, 0.1815
09-Sep-2020 10:52:51.430, 0.3957, 0.7968, 0.0829, 0.5242, 0.2886, 0.4837, 1.6264,-1.0551, 0.1692
09-Sep-2020 10:52:51.439, 0.4042, 0.8110, 0.0769, 0.5042, 0.2659, 0.4424, 1.6196,-1.0505, 0.1581
09-Sep-2020 10:52:51.450, 0.4132, 0.8116, 0.0690, 0.4815, 0.2217, 0.3848, 1.6131,-1.0463, 0.1475
09-Sep-2020 10:52:51.459, 0.4253, 0.7959, 0.0634, 0.4489, 0.1642, 0.3248, 1.6068,-1.0426, 0.1377
09-Sep-2020 10:52:51.469, 0.4410, 0.7639, 0.0578, 0.4094, 0.1045, 0.2879, 1.6005,-1.0394, 0.1285
09-Sep-2020 10:52:51.479, 0.4585, 0.7063, 0.0431, 0.3595, 0.0541, 0.2812, 1.5945,-1.0366, 0.1203
09-Sep-2020 10:52:51.489, 0.4695, 0.6519, 0.0336, 0.2973, 0.0277, 0.2936, 1.5889,-1.0338, 0.1132
09-Sep-2020 10:52:51.499, 0.4686, 0.6143, 0.0216, 0.2477, 0.0204, 0.2967, 1.5840,-1.0308, 0.1072
09-Sep-2020 10:52:51.509, 0.4682, 0.5934,-0.0028, 0.2477, 0.0204, 0.2967, 1.5800,-1.0278, 0.1023
09-Sep-2020 10:52:51.519, 0.4952, 0.5874,-0.0319, 0.2356, 0.0515, 0.2803, 1.5766,-1.0249, 0.0979
09-Sep-2020 10:52:51.529, 0.5519, 0.5991,-0.0714, 0.2957, 0.0595, 0.2850, 1.5731,-1.0221, 0.0932
09-Sep-2020 10:52:51.539, 0.6233, 0.6339,-0.1102, 0.3859, 0.0793, 0.2976, 1.5688,-1.0192, 0.0875
09-Sep-2020 10:52:51.549, 0.6902, 0.6699,-0.1300, 0.4777, 0.0851, 0.2828, 1.5633,-1.0161, 0.0801
09-Sep-2020 10:52:51.559, 0.7419, 0.6898,-0.1256, 0.5424, 0.1094, 0.2297, 1.5566,-1.0132, 0.0711
09-Sep-2020 10:52:51.569, 0.7718, 0.6930,-0.1095, 0.6009, 0.1144, 0.1302, 1.5490,-1.0108, 0.0610
09-Sep-2020 10:52:51.579, 0.7882, 0.6792,-0.0796, 0.6343, 0.1304, 0.0015, 1.5407,-1.0092, 0.0497
09-Sep-2020 10:52:51.589, 0.7912, 0.6591,-0.0319, 0.6485, 0.1722,-0.1458, 1.5319,-1.0089, 0.0378
09-Sep-2020 10:52:51.599, 0.7838, 0.6743, 0.0031, 0.6863, 0.1589,-0.2863, 1.5231,-1.0100, 0.0255
09-Sep-2020 10:52:51.609, 0.7812, 0.7399, 0.0122, 0.7420, 0.2083,-0.3690, 1.5135,-1.0124, 0.0123
09-Sep-2020 10:52:51.619, 0.7678, 0.8405, 0.0283, 0.7729, 0.4036,-0.4306, 1.5034,-1.0155,-0.0021
09-Sep-2020 10:52:51.629, 0.7343, 0.9520, 0.0495, 0.7430, 0.6955,-0.5133, 1.4946,-1.0192,-0.0173
09-Sep-2020 10:52:51.639, 0.6948, 1.0506, 0.0838, 0.6181, 0.9375,-0.6000, 1.4888,-1.0236,-0.0321
09-Sep-2020 10:52:51.649, 0.6644, 1.1088, 0.1218, 0.4230, 0.9931,-0.6365, 1.4871,-1.0289,-0.0448
09-Sep-2020 10:52:51.659, 0.6683, 1.0750, 0.1395, 0.2517, 0.8749,-0.6007, 1.4890,-1.0348,-0.0541
09-Sep-2020 10:52:51.669, 0.6845, 0.9450, 0.1035, 0.1956, 0.6956,-0.5938, 1.4924,-1.0405,-0.0602
09-Sep-2020 10:52:51.679, 0.6833, 0.8089, 0.0334, 0.2203, 0.5705,-0.6087, 1.4951,-1.0461,-0.0651
09-Sep-2020 10:52:51.688, 0.6759, 0.7155,-0.0181, 0.2847, 0.5071,-0.6094, 1.4961,-1.0519,-0.0705
09-Sep-2020 10:52:51.698, 0.6741, 0.6566,-0.0671, 0.3354, 0.4412,-0.6040, 1.4953,-1.0577,-0.0772
09-Sep-2020 10:52:51.708, 0.6744, 0.6396,-0.1023, 0.3391, 0.3466,-0.6520, 1.4929,-1.0634,-0.0849
09-Sep-2020 10:52:51.718, 0.6559, 0.7205,-0.1199, 0.2938, 0.1947,-0.8575, 1.4893,-1.0696,-0.0930
09-Sep-2020 10:52:51.729, 0.6042, 0.9552,-0.1042, 0.2078, 0.0103,-1.2390, 1.4845,-1.0779,-0.1006
09-Sep-2020 10:52:51.738, 0.5414, 1.3136,-0.0408, 0.0840,-0.2977,-1.7528, 1.4785,-1.0901,-0.1074
09-Sep-2020 10:52:51.748, 0.5373, 1.7274, 0.0356,-0.0494,-0.9538,-2.2060, 1.4703,-1.1072,-0.1130
09-Sep-2020 10:52:51.758, 0.6010, 2.0977, 0.1679,-0.3320,-2.0884,-2.3558, 1.4568,-1.1289,-0.1170
09-Sep-2020 10:52:51.768, 0.6986, 2.2623, 0.3398,-0.6863,-2.8699,-2.0368, 1.4372,-1.1521,-0.1158
09-Sep-2020 10:52:51.778, 0.6546, 2.0710, 0.3136,-0.6371,-2.4494,-1.4987, 1.4178,-1.1729,-0.1068
09-Sep-2020 10:52:51.788, 0.4530, 1.4522, 0.1279,-0.4456,-1.5718,-0.9882, 1.4029,-1.1886,-0.0968
09-Sep-2020 10:52:51.798, 0.1698, 0.9469, 0.0508,-0.3953,-0.6342,-0.7024, 1.3943,-1.1991,-0.0894
09-Sep-2020 10:52:51.808,-0.0311, 0.6825, 0.0454,-0.4511, 0.1087,-0.5830, 1.3948,-1.2067,-0.0819
09-Sep-2020 10:52:51.818,-0.1304, 0.5090, 0.0409,-0.5354, 0.7422,-0.5343, 1.4049,-1.2132,-0.0722
09-Sep-2020 10:52:51.827,-0.1539, 0.3768, 0.0477,-0.6389, 1.0332,-0.5081, 1.4240,-1.2192,-0.0594
09-Sep-2020 10:52:51.837,-0.1379, 0.2842, 0.0128,-0.7396, 1.1353,-0.4718, 1.4496,-1.2250,-0.0430
09-Sep-2020 10:52:51.847,-0.1057, 0.2327,-0.0082,-0.8332, 1.1096,-0.4228, 1.4798,-1.2303,-0.0228
09-Sep-2020 10:52:51.857,-0.0912, 0.2418,-0.0231,-0.9428, 1.0644,-0.3699, 1.5135,-1.2351, 0.0012
09-Sep-2020 10:52:51.867,-0.0516, 0.3736,-0.0234,-1.0563, 1.1150,-0.3453, 1.5507,-1.2390, 0.0293
09-Sep-2020 10:52:51.880,-0.0036, 0.6039,-0.0053,-1.1982, 1.3239,-0.3858, 1.5926,-1.2424, 0.0618
09-Sep-2020 10:52:51.887, 0.0465, 0.8813,-0.0063,-1.3673, 1.5358,-0.4560, 1.6415,-1.2457, 0.0994
09-Sep-2020 10:52:51.897, 0.1117, 1.2082,-0.0410,-1.5486, 1.7035,-0.5724, 1.6984,-1.2488, 0.1434
09-Sep-2020 10:52:51.907, 0.1837, 1.5303,-0.0649,-1.6427, 1.8430,-0.6813, 1.7637,-1.2519, 0.1943
09-Sep-2020 10:52:51.917, 0.2682, 1.7161,-0.1138,-1.4279, 1.7534,-0.7165, 1.8343,-1.2547, 0.2495
09-Sep-2020 10:52:51.927, 0.3265, 1.5680,-0.2011,-0.7392, 1.3982,-0.6471, 1.8985,-1.2574, 0.2989
09-Sep-2020 10:52:51.937, 0.3290, 1.2225,-0.2433, 0.0361, 0.9662,-0.4905, 1.9402,-1.2608, 0.3281
09-Sep-2020 10:52:51.947, 0.3134, 0.9443,-0.1932, 0.5244, 0.6546,-0.3183, 1.9548,-1.2654, 0.3333
09-Sep-2020 10:52:51.957, 0.2866, 0.7953,-0.1261, 0.7071, 0.4762,-0.1716, 1.9500,-1.2701, 0.3214
09-Sep-2020 10:52:51.967, 0.2652, 0.6985,-0.0586, 0.7188, 0.5170,-0.0331, 1.9357,-1.2742, 0.3014
09-Sep-2020 10:52:51.977, 0.2615, 0.6554,-0.0179, 0.6338, 0.5403, 0.0537, 1.9191,-1.2770, 0.2787
09-Sep-2020 10:52:51.987, 0.2571, 0.6700,-0.0363, 0.5238, 0.5321, 0.0777, 1.9041,-1.2785, 0.2573
09-Sep-2020 10:52:51.997, 0.2707, 0.7017,-0.0343, 0.4361, 0.4652, 0.0980, 1.8918,-1.2794, 0.2390
09-Sep-2020 10:52:52.007, 0.3327, 0.7332,-0.0557, 0.4143, 0.2947, 0.1366, 1.8812,-1.2798, 0.2233
09-Sep-2020 10:52:52.016, 0.3986, 0.7859,-0.0804, 0.4961, 0.0449, 0.1718, 1.8691,-1.2797, 0.2076
09-Sep-2020 10:52:52.027, 0.4437, 0.8462,-0.1059, 0.6754,-0.2303, 0.1698, 1.8518,-1.2794, 0.1891
09-Sep-2020 10:52:52.037, 0.4647, 0.9118,-0.1020, 0.8892,-0.4587, 0.0963, 1.8262,-1.2796, 0.1648
09-Sep-2020 10:52:52.046, 0.4777, 0.9484,-0.0747, 1.0645,-0.5894, 0.0217, 1.7921,-1.2807, 0.1339
09-Sep-2020 10:52:52.056, 0.4939, 0.9445,-0.0449, 1.1749,-0.5962,-0.0483, 1.7512,-1.2825, 0.0973
09-Sep-2020 10:52:52.066, 0.4967, 0.9285,-0.0211, 1.2407,-0.4942,-0.1221, 1.7065,-1.2847, 0.0568
09-Sep-2020 10:52:52.076, 0.4909, 0.8928, 0.0041, 1.2697,-0.2798,-0.1781, 1.6601,-1.2872, 0.0135
09-Sep-2020 10:52:52.087, 0.4736, 0.8508, 0.0199, 1.3039,-0.0462,-0.2281, 1.6140,-1.2897,-0.0315
09-Sep-2020 10:52:52.097, 0.4425, 0.8137, 0.0152, 1.3758, 0.1475,-0.2887, 1.5683,-1.2922,-0.0786
09-Sep-2020 10:52:52.106, 0.4003, 0.7916,-0.0047, 1.4674, 0.1847,-0.3462, 1.5211,-1.2946,-0.1291
09-Sep-2020 10:52:52.116, 0.3563, 0.7963,-0.0039, 1.4162, 0.1691,-0.4493, 1.4705,-1.2969,-0.1835
09-Sep-2020 10:52:52.126, 0.2607, 0.8377, 0.1879, 1.1450, 0.2252,-0.6200, 1.4206,-1.2996,-0.2371
09-Sep-2020 10:52:52.136, 0.2038, 0.9116, 0.3492, 0.8290, 0.4710,-0.7696, 1.3786,-1.3036,-0.2831
09-Sep-2020 10:52:52.146, 0.2144, 1.0094, 0.3833, 0.6379, 0.7437,-0.8575, 1.3473,-1.3093,-0.3203
09-Sep-2020 10:52:52.156, 0.2288, 1.0723, 0.3054, 0.5523, 1.1509,-0.8978, 1.3237,-1.3160,-0.3525
09-Sep-2020 10:52:52.166, 0.2509, 1.0751, 0.2058, 0.5722, 1.4929,-0.8794, 1.3053,-1.3231,-0.3833
09-Sep-2020 10:52:52.176, 0.2935, 1.0293, 0.0598, 0.6534, 1.6801,-0.8447, 1.2884,-1.3298,-0.4160
