Timestamp,accelX,accelY,accelZ,gyroX(rad/s),gyroY(rad/s),gyroZ(rad/s),Roll(rads),Pitch(rads),Yaw(rads)
09-Sep-2020 10:51:06.766, 0.5051, 0.0234,-1.1623,-0.3697, 0.1625,-0.0582,-0.0872, 0.2881,-2.9703
09-Sep-2020 10:51:06.772, 0.5186, 0.0522,-1.2542,-0.2470,-0.1722,-0.0426, 0.4405,-0.0197, 0.3153
09-Sep-2020 10:51:06.782, 0.5399, 0.0479,-1.2612,-0.0745,-0.3200, 0.0351, 0.4389,-0.0220, 0.3160
09-Sep-2020 10:51:06.792, 0.5530, 0.0603,-1.2297, 0.1050,-0.2678, 0.1452, 0.4358,-0.0224, 0.3167
09-Sep-2020 10:51:06.802, 0.5369, 0.0863,-1.1733, 0.2352,-0.0698, 0.2079, 0.4333,-0.0208, 0.3176
09-Sep-2020 10:51:06.815, 0.5515, 0.0554,-1.1352, 0.2796, 0.1072, 0.2731, 0.4339,-0.0141, 0.3199
09-Sep-2020 10:51:06.822, 0.5622, 0.0127,-1.0772, 0.3082, 0.4921, 0.3272, 0.4339,-0.0141, 0.3199
09-Sep-2020 10:51:06.832, 0.5760,-0.0253,-1.1407, 0.3660, 0.7748, 0.3371, 0.4387,-0.0099, 0.3216
09-Sep-2020 10:51:06.842, 0.5888,-0.0628,-1.1983, 0.4191, 0.8959, 0.2785, 0.4463,-0.0051, 0.3231
09-Sep-2020 10:51:06.852, 0.6134,-0.0646,-1.2359, 0.2215, 0.5638, 0.1538, 0.4550,-0.0003, 0.3238
09-Sep-2020 10:51:06.862, 0.6180,-0.0237,-1.1421,-0.0827, 0.2301, 0.0554, 0.4606, 0.0024, 0.3243
09-Sep-2020 10:51:06.872, 0.6495, 0.0095,-1.0717,-0.2568, 0.2052, 0.0464, 0.4631, 0.0021, 0.3252
09-Sep-2020 10:51:06.881, 0.6845, 0.0257,-1.0727,-0.2970, 0.2612, 0.1686, 0.4653, 0.0002, 0.3269
09-Sep-2020 10:51:06.892, 0.6622, 0.0633,-1.0459,-0.3167, 0.2512, 0.3409, 0.4678,-0.0016, 0.3298
09-Sep-2020 10:51:06.901, 0.6173, 0.0664,-1.0153,-0.2882, 0.1843, 0.5523, 0.4703,-0.0028, 0.3343
09-Sep-2020 10:51:06.911, 0.5806, 0.0534,-0.9849,-0.1911, 0.0958, 0.7480, 0.4721,-0.0027, 0.3405
09-Sep-2020 10:51:06.921, 0.5424, 0.0605,-0.9486,-0.1033,-0.0278, 0.9614, 0.4730,-0.0010, 0.3481
09-Sep-2020 10:51:06.932, 0.5608, 0.0612,-0.9569,-0.0520,-0.2007, 1.0872, 0.4727, 0.0025, 0.3571
09-Sep-2020 10:51:06.941, 0.5616, 0.0301,-0.9276, 0.0131,-0.2580, 1.1151, 0.4707, 0.0070, 0.3669
09-Sep-2020 10:51:06.951, 0.5266,-0.0007,-0.8999, 0.0494,-0.2882, 1.1051, 0.4681, 0.0122, 0.3768
09-Sep-2020 10:51:06.961, 0.4868,-0.0338,-0.9176, 0.0545,-0.3409, 1.0775, 0.4650, 0.0176, 0.3864
09-Sep-2020 10:51:06.971, 0.4411,-0.0502,-0.9162, 0.0179,-0.3974, 1.0152, 0.4614, 0.0229, 0.3959
09-Sep-2020 10:51:06.981, 0.3829,-0.0358,-0.8690,-0.0933,-0.3567, 0.8518, 0.4573, 0.0275, 0.4048
09-Sep-2020 10:51:06.991, 0.3300,-0.0045,-0.8123,-0.2761,-0.2683, 0.5719, 0.4535, 0.0304, 0.4129
09-Sep-2020 10:51:07.001, 0.3232,-0.0018,-0.7429,-0.5085, 0.0123, 0.2846, 0.4508, 0.0305, 0.4193
09-Sep-2020 10:51:07.011, 0.3064,-0.0125,-0.7066,-0.7780, 0.3306, 0.0656, 0.4508, 0.0272, 0.4241
09-Sep-2020 10:51:07.021, 0.3597,-0.0144,-0.7628,-1.0386, 0.3754,-0.0887, 0.4538, 0.0206, 0.4282
09-Sep-2020 10:51:07.031, 0.4238,-0.0255,-0.8116,-1.1755, 0.2553,-0.1449, 0.4574, 0.0111, 0.4320
09-Sep-2020 10:51:07.041, 0.4344,-0.0458,-0.8121,-1.0831, 0.3068,-0.0805, 0.4599, 0.0002, 0.4359
09-Sep-2020 10:51:07.051, 0.3861,-0.0295,-0.8283,-0.6826, 0.5552,-0.0051, 0.4631,-0.0095, 0.4400
09-Sep-2020 10:51:07.061, 0.3078, 0.0183,-0.9227,-0.2318, 0.3277, 0.0427, 0.4683,-0.0155, 0.4430
09-Sep-2020 10:51:07.071, 0.3008, 0.0759,-0.9272, 0.1437, 0.0572,-0.0052, 0.4714,-0.0173, 0.4444
09-Sep-2020 10:51:07.080, 0.2929, 0.1086,-0.8607, 0.2888,-0.2322,-0.1543, 0.4721,-0.0162, 0.4438
09-Sep-2020 10:51:07.091, 0.2701, 0.0752,-0.8724, 0.4174,-1.0286,-0.2093, 0.4695,-0.0143, 0.4412
09-Sep-2020 10:51:07.100, 0.2737, 0.0203,-0.9196, 0.6422,-2.1434,-0.1212, 0.4589,-0.0113, 0.4376
09-Sep-2020 10:51:07.110, 0.3298,-0.0672,-0.9270, 0.9243,-3.1682, 0.0573, 0.4376,-0.0060, 0.4338
09-Sep-2020 10:51:07.120, 0.3495,-0.1032,-0.7771, 1.1295,-3.7164, 0.2343, 0.4064, 0.0027, 0.4307
09-Sep-2020 10:51:07.130, 0.2986,-0.0758,-0.6460, 1.1809,-3.8559, 0.3221, 0.3696, 0.0139, 0.4286
09-Sep-2020 10:51:07.140, 0.2355,-0.0396,-0.6008, 1.0712,-3.6877, 0.2872, 0.3315, 0.0260, 0.4276
09-Sep-2020 10:51:07.150, 0.1979, 0.0054,-0.5911, 0.8661,-3.2486, 0.1597, 0.2950, 0.0370, 0.4271
09-Sep-2020 10:51:07.161, 0.1745, 0.0452,-0.6133, 0.6199,-2.6188,-0.0172, 0.2628, 0.0457, 0.4263
09-Sep-2020 10:51:07.170, 0.1515, 0.0385,-0.6430, 0.4225,-1.8553,-0.1939, 0.2368, 0.0517, 0.4246
09-Sep-2020 10:51:07.180, 0.1210, 0.0149,-0.6551, 0.3187,-1.0001,-0.3484, 0.2186, 0.0555, 0.4219
09-Sep-2020 10:51:07.190, 0.0683,-0.0024,-0.6985, 0.2965,-0.2415,-0.5112, 0.2088, 0.0579, 0.4178
09-Sep-2020 10:51:07.200, 0.0646, 0.0007,-0.8002, 0.3485, 0.0704,-0.5742, 0.2064, 0.0599, 0.4124
09-Sep-2020 10:51:07.210, 0.0973,-0.0871,-0.9071, 0.3118,-0.0106,-0.5430, 0.2074, 0.0620, 0.4062
09-Sep-2020 10:51:07.220, 0.1569,-0.1428,-0.9603, 0.2898,-0.2602,-0.4146, 0.2076, 0.0640, 0.4004
09-Sep-2020 10:51:07.230, 0.1997,-0.0881,-0.9760, 0.3742,-0.5780,-0.2565, 0.2052, 0.0661, 0.3958
09-Sep-2020 10:51:07.240, 0.1965,-0.0305,-1.0177, 0.4759,-0.9024,-0.1292, 0.1996, 0.0693, 0.3926
09-Sep-2020 10:51:07.250, 0.1752,-0.0170,-1.0562, 0.6323,-1.0932,-0.0003, 0.1909, 0.0738, 0.3905
09-Sep-2020 10:51:07.260, 0.1268,-0.0081,-1.1247, 0.8301,-1.3163, 0.1206, 0.1800, 0.0801, 0.3894
09-Sep-2020 10:51:07.270, 0.0618,-0.0163,-1.1262, 0.8766,-1.4627, 0.1049, 0.1669, 0.0883, 0.3891
09-Sep-2020 10:51:07.280, 0.0157,-0.0383,-1.0337, 0.7180,-1.4135,-0.0659, 0.1525, 0.0970, 0.3888
09-Sep-2020 10:51:07.290,-0.0017,-0.0468,-0.9180, 0.3412,-1.2237,-0.2651, 0.1387, 0.1039, 0.3871
09-Sep-2020 10:51:07.300, 0.0171,-0.0886,-0.9392,-0.0599,-1.0170,-0.3631, 0.1269, 0.1070, 0.3842
09-Sep-2020 10:51:07.310, 0.0136,-0.1009,-1.0409,-0.3451,-0.9225,-0.3775, 0.1170, 0.1061, 0.3808
09-Sep-2020 10:51:07.319,-0.0208,-0.0839,-1.1157,-0.4743,-0.9012,-0.3943, 0.1081, 0.1024, 0.3774
09-Sep-2020 10:51:07.329,-0.0617,-0.0711,-1.1620,-0.4806,-0.9645,-0.4505, 0.0994, 0.0974, 0.3740
09-Sep-2020 10:51:07.339,-0.0935,-0.0615,-1.2140,-0.3907,-1.0963,-0.5596, 0.0902, 0.0923, 0.3700
09-Sep-2020 10:51:07.350,-0.1135,-0.0378,-1.2412,-0.2562,-1.2366,-0.7126, 0.0797, 0.0880, 0.3649
09-Sep-2020 10:51:07.359,-0.1418,-0.0151,-1.2568,-0.1181,-1.3584,-0.8843, 0.0680, 0.0850, 0.3580
09-Sep-2020 10:51:07.369,-0.1736, 0.0014,-1.2578,-0.0225,-1.4325,-1.0556, 0.0552, 0.0833, 0.3493
09-Sep-2020 10:51:07.379,-0.1866, 0.0420,-1.2026,-0.0149,-1.3440,-1.2127, 0.0419, 0.0825, 0.3389
09-Sep-2020 10:51:07.389,-0.2083, 0.0701,-1.1194,-0.2240,-0.6620,-1.2340, 0.0300, 0.0818, 0.3270
09-Sep-2020 10:51:07.399,-0.2042, 0.0620,-1.1138,-0.3205,-0.1342,-1.0844, 0.0242, 0.0794, 0.3149
09-Sep-2020 10:51:07.409,-0.1496, 0.0066,-1.1067,-0.3470, 0.2559,-0.8026, 0.0236, 0.0760, 0.3044
09-Sep-2020 10:51:07.419,-0.1116, 0.0096,-1.1402,-0.3375, 0.1983,-0.4976, 0.0264, 0.0724, 0.2965
09-Sep-2020 10:51:07.429,-0.0930, 0.0121,-1.1877,-0.3432,-0.1165,-0.2123, 0.0286, 0.0690, 0.2917
09-Sep-2020 10:51:07.439,-0.1170,-0.0121,-1.2280,-0.2651,-0.4740,-0.0103, 0.0275, 0.0656, 0.2897
09-Sep-2020 10:51:07.449,-0.1794,-0.0028,-1.2478,-0.1231,-0.7844, 0.1241, 0.0228, 0.0630, 0.2897
09-Sep-2020 10:51:07.459,-0.2312, 0.0275,-1.2320, 0.0231,-1.0307, 0.2000, 0.0150, 0.0619, 0.2910
09-Sep-2020 10:51:07.469,-0.2503, 0.0694,-1.1480, 0.1224,-1.1464, 0.1625, 0.0046, 0.0621, 0.2930
09-Sep-2020 10:51:07.479,-0.2464, 0.0957,-1.0437, 0.1311,-1.0883, 0.0625,-0.0068, 0.0633, 0.2947
09-Sep-2020 10:51:07.489,-0.2124, 0.0892,-0.9810, 0.0726,-0.9661,-0.0021,-0.0176, 0.0646, 0.2954
09-Sep-2020 10:51:07.499,-0.1675, 0.0694,-0.9311, 0.0154,-0.7474,-0.0046,-0.0272, 0.0654, 0.2955
09-Sep-2020 10:51:07.509,-0.1474, 0.0523,-0.8678,-0.0402,-0.4028, 0.0291,-0.0346, 0.0655, 0.2956
09-Sep-2020 10:51:07.519,-0.1626, 0.0417,-0.8084,-0.1307, 0.0051, 0.0544,-0.0386, 0.0651, 0.2960
09-Sep-2020 10:51:07.529,-0.1950, 0.0070,-0.7932,-0.2412, 0.3440, 0.0462,-0.0386, 0.0638, 0.2965
09-Sep-2020 10:51:07.539,-0.2319,-0.0411,-0.8273,-0.3038, 0.5155, 0.0030,-0.0354, 0.0615, 0.2969
09-Sep-2020 10:51:07.548,-0.2749,-0.0643,-0.8869,-0.2802, 0.5314,-0.0995,-0.0304, 0.0585, 0.2969
09-Sep-2020 10:51:07.558,-0.3012,-0.0611,-0.9328,-0.1511, 0.4291,-0.2555,-0.0251, 0.0558, 0.2959
09-Sep-2020 10:51:07.568,-0.2752,-0.0420,-0.9008, 0.0292, 0.3092,-0.4420,-0.0207, 0.0545, 0.2934
09-Sep-2020 10:51:07.578,-0.2137,-0.0214,-0.8383, 0.2294, 0.3673,-0.6491,-0.0173, 0.0549, 0.2890
09-Sep-2020 10:51:07.588,-0.1384,-0.0303,-0.7906, 0.3936, 0.6786,-0.8451,-0.0132, 0.0573, 0.2827
09-Sep-2020 10:51:07.598,-0.0986,-0.0515,-0.8093, 0.4879, 0.9179,-0.9883,-0.0060, 0.0613, 0.2744
09-Sep-2020 10:51:07.608,-0.0895,-0.0474,-0.8549, 0.5698, 0.9882,-1.0816, 0.0036, 0.0662, 0.2646
09-Sep-2020 10:51:07.618,-0.0808,-0.0274,-0.8797, 0.6616, 0.9377,-1.1482, 0.0141, 0.0718, 0.2539
09-Sep-2020 10:51:07.628,-0.0529,-0.0663,-0.9342, 0.6681, 0.4298,-1.2220, 0.0238, 0.0781, 0.2424
09-Sep-2020 10:51:07.638,-0.0388,-0.1098,-0.8982, 0.6255,-0.1532,-1.3201, 0.0290, 0.0844, 0.2300
09-Sep-2020 10:51:07.648,-0.0421,-0.1053,-0.9127, 0.6269,-0.6790,-1.4846, 0.0287, 0.0903, 0.2167
09-Sep-2020 10:51:07.658,-0.0588,-0.0911,-0.9313, 0.6631,-1.1510,-1.6772, 0.0233, 0.0962, 0.2018
09-Sep-2020 10:51:07.668,-0.0897,-0.0871,-0.9524, 0.6858,-1.5327,-1.8037, 0.0135, 0.1025, 0.1850
09-Sep-2020 10:51:07.678,-0.0701,-0.0896,-0.8982, 0.7548,-1.5282,-1.8206, 0.0004, 0.1093, 0.1670
09-Sep-2020 10:51:07.688,-0.0685,-0.0554,-0.8448, 0.8240,-1.1269,-1.7829,-0.0125, 0.1170, 0.1490
09-Sep-2020 10:51:07.698,-0.0508,-0.0650,-0.8514, 0.9144,-0.6450,-1.6861,-0.0215, 0.1255, 0.1313
09-Sep-2020 10:51:07.708,-0.0318,-0.1182,-0.9002, 1.0391,-0.4761,-1.5176,-0.0261, 0.1351, 0.1148
09-Sep-2020 10:51:07.718,-0.0198,-0.1817,-0.9149, 1.0926,-0.4508,-1.3720,-0.0289, 0.1458, 0.0999
09-Sep-2020 10:51:07.728,-0.0247,-0.1912,-0.9158, 0.9910,-0.5491,-1.3560,-0.0314, 0.1570, 0.0864
09-Sep-2020 10:51:07.738,-0.0436,-0.1809,-0.9345, 0.8449,-0.7245,-1.4499,-0.0348, 0.1673, 0.0731
09-Sep-2020 10:51:07.748,-0.0307,-0.1861,-0.9296, 0.7378,-0.8505,-1.5457,-0.0395, 0.1764, 0.0588
09-Sep-2020 10:51:07.757, 0.0199,-0.2033,-0.9113, 0.5796,-0.9456,-1.5230,-0.0452, 0.1843, 0.0437
09-Sep-2020 10:51:07.768, 0.0456,-0.1962,-0.9054, 0.4559,-1.0276,-1.3815,-0.0519, 0.1909, 0.0287
09-Sep-2020 10:51:07.777,-0.0335,-0.1739,-0.9411, 0.3677,-1.0761,-1.2167,-0.0595, 0.1962, 0.0151
09-Sep-2020 10:51:07.787,-0.1619,-0.1312,-1.0111, 0.3418,-1.0133,-1.1652,-0.0677, 0.2007, 0.0030
09-Sep-2020 10:51:07.797,-0.2234,-0.1206,-1.0518, 0.3535,-0.8265,-1.2340,-0.0754, 0.2050,-0.0086
09-Sep-2020 10:51:07.807,-0.1863,-0.1407,-1.0145, 0.2613,-0.5985,-1.2990,-0.0811, 0.2094,-0.0207
09-Sep-2020 10:51:07.817,-0.1107,-0.1631,-0.9331, 0.0125,-0.3671,-1.2673,-0.0844, 0.2130,-0.0335
09-Sep-2020 10:51:07.827,-0.0765,-0.1586,-0.8798,-0.3586,-0.1637,-1.1694,-0.0854, 0.2141,-0.0463
09-Sep-2020 10:51:07.837,-0.0820,-0.1183,-0.9500,-0.8332,-0.2438,-1.0942,-0.0846, 0.2115,-0.0584
09-Sep-2020 10:51:07.847,-0.1316,-0.0062,-1.1026,-1.2796,-0.5410,-1.1179,-0.0848, 0.2042,-0.0702
09-Sep-2020 10:51:07.857,-0.1868, 0.1213,-1.3000,-1.4675,-0.8459,-1.2125,-0.0877, 0.1927,-0.0826
09-Sep-2020 10:51:07.867,-0.2442, 0.2655,-1.4711,-1.3177,-1.0327,-1.3685,-0.0936, 0.1794,-0.0961
09-Sep-2020 10:51:07.877,-0.2584, 0.3268,-1.5419,-0.8804,-1.0586,-1.4902,-0.1012, 0.1679,-0.1110
09-Sep-2020 10:51:07.887,-0.2830, 0.3475,-1.5128,-0.3307,-1.0101,-1.5635,-0.1091, 0.1609,-0.1268
09-Sep-2020 10:51:07.897,-0.2554, 0.2696,-1.3985, 0.1426,-0.9004,-1.5578,-0.1166, 0.1593,-0.1427
09-Sep-2020 10:51:07.907,-0.2173, 0.1813,-1.2107, 0.3112,-0.8073,-1.5167,-0.1232, 0.1624,-0.1580
09-Sep-2020 10:51:07.917,-0.2323, 0.0988,-1.0414, 0.1355,-0.7746,-1.5392,-0.1288, 0.1672,-0.1728
09-Sep-2020 10:51:07.927,-0.2780, 0.0509,-0.9358,-0.2497,-0.7799,-1.6665,-0.1340, 0.1704,-0.1880
09-Sep-2020 10:51:07.937,-0.3281, 0.0399,-0.8890,-0.6604,-0.7937,-1.8572,-0.1389, 0.1702,-0.2050
09-Sep-2020 10:51:07.946,-0.3442, 0.0602,-0.8773,-1.0133,-0.8038,-2.0465,-0.1436, 0.1663,-0.2244
09-Sep-2020 10:51:07.957,-0.3297, 0.1012,-0.8732,-1.2949,-0.7919,-2.1370,-0.1480, 0.1594,-0.2462
09-Sep-2020 10:51:07.967,-0.3134, 0.1537,-0.8927,-1.4605,-0.7339,-2.1176,-0.1523, 0.1499,-0.2693
09-Sep-2020 10:51:07.977,-0.3210, 0.2140,-0.9354,-1.5021,-0.6249,-2.0429,-0.1563, 0.1389,-0.2924
09-Sep-2020 10:51:07.987,-0.3720, 0.2704,-0.9794,-1.4150,-0.4404,-2.0217,-0.1595, 0.1274,-0.3150
09-Sep-2020 10:51:07.997,-0.4026, 0.2847,-0.9922,-1.2288,-0.1694,-2.0783,-0.1611, 0.1168,-0.3372
09-Sep-2020 10:51:08.006,-0.4072, 0.2691,-0.9882,-1.0128, 0.0397,-2.1637,-0.1604, 0.1081,-0.3597
09-Sep-2020 10:51:08.016,-0.3745, 0.2455,-0.9528,-0.8156, 0.1175,-2.2251,-0.1577, 0.1016,-0.3826
09-Sep-2020 10:51:08.026,-0.3248, 0.2218,-0.8687,-0.7159, 0.0652,-2.2319,-0.1543, 0.0969,-0.4057
09-Sep-2020 10:51:08.036,-0.2790, 0.1938,-0.8194,-0.7111,-0.1691,-2.1749,-0.1516, 0.0932,-0.4288
09-Sep-2020 10:51:08.046,-0.2663, 0.1834,-0.8004,-0.7339,-0.5536,-2.0376,-0.1513, 0.0895,-0.4512
09-Sep-2020 10:51:08.056,-0.3089, 0.1921,-0.7888,-0.7115,-0.9450,-1.9259,-0.1551, 0.0854,-0.4724
09-Sep-2020 10:51:08.066,-0.3220, 0.2044,-0.7352,-0.6889,-0.9918,-1.9057,-0.1625, 0.0814,-0.4925
09-Sep-2020 10:51:08.076,-0.3398, 0.2209,-0.6991,-0.7449,-1.0288,-1.9483,-0.1709, 0.0778,-0.5123
09-Sep-2020 10:51:08.086,-0.3698, 0.2342,-0.6972,-0.8958,-1.1346,-2.0518,-0.1796, 0.0738,-0.5327
09-Sep-2020 10:51:08.096,-0.3802, 0.2405,-0.7172,-1.0614,-1.2178,-2.2014,-0.1894, 0.0688,-0.5544
09-Sep-2020 10:51:08.106,-0.3774, 0.2752,-0.7314,-1.2361,-1.2104,-2.3999,-0.1999, 0.0627,-0.5780
09-Sep-2020 10:51:08.116,-0.3698, 0.3183,-0.7672,-1.4209,-1.1168,-2.6491,-0.2104, 0.0555,-0.6039
09-Sep-2020 10:51:08.126,-0.3359, 0.3176,-0.8268,-1.6106,-1.0825,-2.8018,-0.2201, 0.0474,-0.6325
09-Sep-2020 10:51:08.136,-0.3117, 0.3612,-0.8422,-1.7574,-1.0050,-2.8297,-0.2295, 0.0380,-0.6632
09-Sep-2020 10:51:08.146,-0.2963, 0.3993,-0.8695,-1.8408,-0.8777,-2.7780,-0.2385, 0.0275,-0.6945
09-Sep-2020 10:51:08.156,-0.3113, 0.4380,-0.9122,-1.8801,-0.7567,-2.7624,-0.2466, 0.0164,-0.7257
09-Sep-2020 10:51:08.165,-0.3503, 0.4902,-0.9505,-1.8789,-0.6616,-2.8995,-0.2538, 0.0051,-0.7570
09-Sep-2020 10:51:08.175,-0.3898, 0.5322,-1.0323,-1.7874,-0.6609,-3.2079,-0.2605,-0.0055,-0.7896
09-Sep-2020 10:51:08.186,-0.3721, 0.5672,-1.1053,-1.7983,-0.8220,-3.6374,-0.2676,-0.0145,-0.8252
09-Sep-2020 10:51:08.195,-0.3291, 0.5665,-1.1396,-1.7221,-0.9771,-3.9081,-0.2765,-0.0219,-0.8646
09-Sep-2020 10:51:08.205,-0.2636, 0.5514,-1.1210,-1.5549,-1.1214,-3.9196,-0.2873,-0.0275,-0.9065
09-Sep-2020 10:51:08.215,-0.2002, 0.5223,-1.0316,-1.5599,-1.1389,-3.7754,-0.2996,-0.0312,-0.9482
09-Sep-2020 10:51:08.225,-0.1954, 0.4975,-0.9478,-1.7627,-0.9718,-3.6157,-0.3122,-0.0348,-0.9887
09-Sep-2020 10:51:08.235,-0.2762, 0.5440,-0.8996,-2.0932,-0.6938,-3.5701,-0.3233,-0.0402,-1.0284
09-Sep-2020 10:51:08.245,-0.3073, 0.5380,-0.9029,-2.3976,-0.3876,-3.5519,-0.3319,-0.0485,-1.0687
09-Sep-2020 10:51:08.255,-0.3158, 0.5439,-0.9511,-2.6398,-0.2030,-3.5346,-0.3381,-0.0594,-1.1099
09-Sep-2020 10:51:08.265,-0.3374, 0.5760,-0.9979,-2.8331,-0.1318,-3.5507,-0.3430,-0.0723,-1.1519
09-Sep-2020 10:51:08.275,-0.3435, 0.6250,-1.0394,-2.8998,-0.0771,-3.5709,-0.3477,-0.0868,-1.1947
09-Sep-2020 10:51:08.285,-0.3387, 0.6370,-1.0560,-2.8033, 0.1115,-3.6001,-0.3525,-0.1016,-1.2381
09-Sep-2020 10:51:08.295,-0.2965, 0.6082,-1.0434,-2.6488, 0.3966,-3.5839,-0.3560,-0.1153,-1.2815
09-Sep-2020 10:51:08.305,-0.2535, 0.6012,-1.0039,-2.5581, 0.6226,-3.5337,-0.3573,-0.1276,-1.3244
09-Sep-2020 10:51:08.315,-0.1990, 0.5459,-0.9666,-2.5145, 0.8064,-3.4171,-0.3567,-0.1392,-1.3665
09-Sep-2020 10:51:08.325,-0.1791, 0.4768,-0.9768,-2.5277, 0.8610,-3.2648,-0.3547,-0.1509,-1.4074
09-Sep-2020 10:51:08.335,-0.1809, 0.4267,-0.9767,-2.6058, 0.8145,-3.1161,-0.3524,-0.1633,-1.4470
09-Sep-2020 10:51:08.345,-0.1456, 0.3721,-0.9740,-2.7042, 0.7997,-2.9685,-0.3508,-0.1769,-1.4856
09-Sep-2020 10:51:08.355,-0.0546, 0.3055,-0.9708,-2.7866, 0.7570,-2.7344,-0.3498,-0.1921,-1.5230
09-Sep-2020 10:51:08.365,-0.0052, 0.3026,-0.9667,-2.8664, 0.6525,-2.4427,-0.3493,-0.2088,-1.5587
09-Sep-2020 10:51:08.375, 0.0298, 0.2554,-1.0085,-2.8941, 0.4142,-2.0583,-0.3501,-0.2273,-1.5919
09-Sep-2020 10:51:08.385, 0.0312, 0.1962,-1.0566,-2.9307,-0.0370,-1.5421,-0.3531,-0.2473,-1.6217
09-Sep-2020 10:51:08.394,-0.0344, 0.2830,-1.0244,-2.9973,-0.4868,-1.0381,-0.3599,-0.2693,-1.6471
09-Sep-2020 10:51:08.404,-0.1737, 0.4579,-0.9022,-3.0270,-0.6488,-0.6918,-0.3704,-0.2934,-1.6682
09-Sep-2020 10:51:08.415,-0.2372, 0.5379,-0.8397,-3.0213,-0.5832,-0.5025,-0.3823,-0.3189,-1.6865
09-Sep-2020 10:51:08.424,-0.2986, 0.5295,-0.7950,-2.9965,-0.3892,-0.4177,-0.3936,-0.3448,-1.7034
09-Sep-2020 10:51:08.434,-0.3206, 0.4923,-0.7568,-2.9783,-0.1163,-0.3309,-0.4031,-0.3706,-1.7198
09-Sep-2020 10:51:08.444,-0.3198, 0.4629,-0.7202,-2.9681, 0.1668,-0.1963,-0.4102,-0.3966,-1.7356
09-Sep-2020 10:51:08.454,-0.3473, 0.4656,-0.6892,-2.9872, 0.4151,-0.0795,-0.4144,-0.4229,-1.7504
09-Sep-2020 10:51:08.464,-0.4238, 0.5238,-0.7115,-3.0107, 0.6180,-0.0950,-0.4162,-0.4497,-1.7644
09-Sep-2020 10:51:08.474,-0.4889, 0.5916,-0.7505,-3.0227, 0.7865,-0.2743,-0.4166,-0.4767,-1.7789
09-Sep-2020 10:51:08.484,-0.5038, 0.6313,-0.7384,-2.9966, 0.9831,-0.5386,-0.4166,-0.5030,-1.7955
09-Sep-2020 10:51:08.494,-0.4699, 0.6284,-0.7438,-2.9231, 1.1351,-0.7941,-0.4164,-0.5281,-1.8149
09-Sep-2020 10:51:08.504,-0.4323, 0.6056,-0.8060,-2.8120, 1.0839,-1.0224,-0.4166,-0.5515,-1.8369
09-Sep-2020 10:51:08.514,-0.4085, 0.5844,-0.8274,-2.6797, 0.9068,-1.2080,-0.4188,-0.5730,-1.8612
09-Sep-2020 10:51:08.524,-0.3818, 0.5661,-0.7907,-2.5135, 0.7459,-1.3258,-0.4241,-0.5924,-1.8872
09-Sep-2020 10:51:08.534,-0.3871, 0.5685,-0.7516,-2.3449, 0.6613,-1.4040,-0.4320,-0.6097,-1.9143
09-Sep-2020 10:51:08.544,-0.4252, 0.5700,-0.7290,-2.2134, 0.6917,-1.4403,-0.4413,-0.6250,-1.9418
09-Sep-2020 10:51:08.554,-0.4461, 0.5558,-0.7244,-2.1225, 0.8883,-1.4298,-0.4506,-0.6387,-1.9695
09-Sep-2020 10:51:08.564,-0.4154, 0.5518,-0.7362,-2.0499, 1.1668,-1.3448,-0.4583,-0.6515,-1.9969
09-Sep-2020 10:51:08.573,-0.3443, 0.5917,-0.7520,-1.9836, 1.4197,-1.2110,-0.4629,-0.6638,-2.0234
09-Sep-2020 10:51:08.584,-0.2809, 0.6601,-0.7769,-1.8971, 1.6192,-1.1099,-0.4643,-0.6761,-2.0484
09-Sep-2020 10:51:08.594,-0.2254, 0.7196,-0.8114,-1.7655, 1.7584,-1.1133,-0.4631,-0.6880,-2.0719
09-Sep-2020 10:51:08.603,-0.2085, 0.7413,-0.8583,-1.5767, 1.8068,-1.2061,-0.4603,-0.6987,-2.0949
09-Sep-2020 10:51:08.613,-0.2323, 0.7454,-0.9292,-1.3624, 1.6358,-1.3160,-0.4574,-0.7074,-2.1180
09-Sep-2020 10:51:08.623,-0.2812, 0.7533,-0.9948,-1.1506, 1.3006,-1.4486,-0.4565,-0.7139,-2.1413
09-Sep-2020 10:51:08.633,-0.3244, 0.7407,-1.0267,-0.9174, 0.9139,-1.6015,-0.4592,-0.7178,-2.1651
09-Sep-2020 10:51:08.643,-0.3329, 0.6909,-0.9800,-0.6600, 0.6385,-1.7204,-0.4660,-0.7188,-2.1893
09-Sep-2020 10:51:08.653,-0.3087, 0.6411,-0.9136,-0.3888, 0.5115,-1.7981,-0.4754,-0.7169,-2.2134
09-Sep-2020 10:51:08.663,-0.2669, 0.5980,-0.8786,-0.1049, 0.4650,-1.8190,-0.4855,-0.7121,-2.2366
09-Sep-2020 10:51:08.673,-0.2268, 0.5637,-0.8380, 0.1432, 0.4575,-1.7797,-0.4949,-0.7045,-2.2581
09-Sep-2020 10:51:08.684,-0.2093, 0.5541,-0.7839, 0.3352, 0.4937,-1.7012,-0.5028,-0.6949,-2.2774
09-Sep-2020 10:51:08.693,-0.2105, 0.5786,-0.7204, 0.4602, 0.5795,-1.6050,-0.5087,-0.6838,-2.2945
09-Sep-2020 10:51:08.703,-0.2127, 0.6121,-0.6689, 0.4873, 0.6993,-1.4976,-0.5123,-0.6721,-2.3094
09-Sep-2020 10:51:08.713,-0.2038, 0.6269,-0.6479, 0.3929, 0.8052,-1.3893,-0.5137,-0.6606,-2.3229
09-Sep-2020 10:51:08.723,-0.1972, 0.6317,-0.6666, 0.1850, 0.8060,-1.2816,-0.5135,-0.6505,-2.3356
09-Sep-2020 10:51:08.733,-0.1909, 0.6305,-0.7113,-0.0914, 0.6568,-1.1801,-0.5132,-0.6427,-2.3483
09-Sep-2020 10:51:08.743,-0.1759, 0.6185,-0.7368,-0.3939, 0.3937,-1.1075,-0.5147,-0.6377,-2.3616
09-Sep-2020 10:51:08.753,-0.1771, 0.5959,-0.6981,-0.6908, 0.1701,-1.0703,-0.5192,-0.6357,-2.3758
09-Sep-2020 10:51:08.765,-0.1799, 0.5490,-0.6331,-0.9530, 0.1918,-1.0110,-0.5266,-0.6363,-2.3914
09-Sep-2020 10:51:08.773,-0.1746, 0.4880,-0.6324,-1.1321, 0.4146,-0.8749,-0.5345,-0.6394,-2.4080
09-Sep-2020 10:51:08.783,-0.1731, 0.4804,-0.6683,-1.2450, 0.6025,-0.6717,-0.5402,-0.6447,-2.4244
09-Sep-2020 10:51:08.792,-0.1780, 0.5234,-0.7049,-1.3056, 0.6648,-0.4698,-0.5434,-0.6518,-2.4395
09-Sep-2020 10:51:08.802,-0.1852, 0.5314,-0.7734,-1.2566, 0.5245,-0.2751,-0.5451,-0.6604,-2.4528
09-Sep-2020 10:51:08.812,-0.2271, 0.4569,-0.8757,-1.0966, 0.2508,-0.0333,-0.5467,-0.6697,-2.4639
09-Sep-2020 10:51:08.823,-0.2698, 0.4153,-0.8897,-0.8617, 0.1193, 0.2489,-0.5488,-0.6788,-2.4714
09-Sep-2020 10:51:08.832,-0.2992, 0.5138,-0.8149,-0.7346, 0.1968, 0.4273,-0.5495,-0.6875,-2.4744
09-Sep-2020 10:51:08.842,-0.3153, 0.6539,-0.7300,-0.7462, 0.4592, 0.4661,-0.5476,-0.6960,-2.4747
09-Sep-2020 10:51:08.852,-0.3050, 0.7439,-0.7096,-0.7870, 0.6925, 0.3930,-0.5429,-0.7047,-2.4745
09-Sep-2020 10:51:08.862,-0.2771, 0.7601,-0.7248,-0.8717, 0.7541, 0.2404,-0.5367,-0.7135,-2.4754
09-Sep-2020 10:51:08.872,-0.1819, 0.7571,-0.7708,-0.9651, 0.5030, 0.1703,-0.5315,-0.7222,-2.4784
09-Sep-2020 10:51:08.882,-0.1503, 0.7315,-0.8193,-0.9896, 0.1070, 0.1942,-0.5295,-0.7313,-2.4828
09-Sep-2020 10:51:08.892,-0.2078, 0.6950,-0.8433,-0.8933,-0.1863, 0.2069,-0.5313,-0.7407,-2.4871
09-Sep-2020 10:51:08.902,-0.2711, 0.6626,-0.8469,-0.7474,-0.3212, 0.1482,-0.5355,-0.7494,-2.4908
09-Sep-2020 10:51:08.912,-0.3005, 0.6274,-0.7905,-0.6644,-0.2542, 0.0836,-0.5410,-0.7566,-2.4942
09-Sep-2020 10:51:08.922,-0.3073, 0.6232,-0.6919,-0.6224, 0.0640, 0.0504,-0.5458,-0.7627,-2.4978
09-Sep-2020 10:51:08.932,-0.3132, 0.6609,-0.6066,-0.6012, 0.4857,-0.0167,-0.5478,-0.7683,-2.5016
09-Sep-2020 10:51:08.942,-0.3314, 0.7033,-0.5777,-0.6482, 0.7489,-0.1506,-0.5462,-0.7734,-2.5061
09-Sep-2020 10:51:08.952,-0.3443, 0.7200,-0.6104,-0.7263, 0.8264,-0.4073,-0.5434,-0.7781,-2.5126
09-Sep-2020 10:51:08.962,-0.3138, 0.6555,-0.6636,-0.7909, 0.7707,-0.6003,-0.5423,-0.7822,-2.5226
09-Sep-2020 10:51:08.972,-0.2718, 0.6361,-0.6784,-0.8394, 0.6773,-0.6863,-0.5437,-0.7859,-2.5353
09-Sep-2020 10:51:08.982,-0.2433, 0.6676,-0.6618,-0.9073, 0.5567,-0.6756,-0.5471,-0.7896,-2.5496
09-Sep-2020 10:51:08.992,-0.2449, 0.7107,-0.6165,-1.0093, 0.5073,-0.5635,-0.5519,-0.7938,-2.5643
09-Sep-2020 10:51:09.002,-0.2507, 0.7813,-0.5431,-1.1590, 0.6044,-0.3619,-0.5570,-0.7995,-2.5785
09-Sep-2020 10:51:09.011,-0.2544, 0.9021,-0.4332,-1.2834, 1.0653,-0.1808,-0.5601,-0.8074,-2.5916
09-Sep-2020 10:51:09.022,-0.2863, 1.0154,-0.3605,-1.2776, 1.9269,-0.1662,-0.5580,-0.8171,-2.6036
09-Sep-2020 10:51:09.032,-0.2638, 1.0622,-0.4160,-1.1843, 2.5456,-0.1853,-0.5477,-0.8270,-2.6154
09-Sep-2020 10:51:09.041,-0.1946, 1.0303,-0.5229,-1.0550, 2.6861,-0.1621,-0.5309,-0.8362,-2.6265
09-Sep-2020 10:51:09.052,-0.1555, 0.9637,-0.5918,-0.9042, 2.5285,-0.1056,-0.5117,-0.8445,-2.6363
09-Sep-2020 10:51:09.061,-0.1935, 0.9240,-0.6029,-0.7691, 2.2848,-0.0244,-0.4924,-0.8519,-2.6441
09-Sep-2020 10:51:09.071,-0.2398, 0.8851,-0.5695,-0.6718, 2.1979, 0.0225,-0.4739,-0.8586,-2.6498
09-Sep-2020 10:51:09.081,-0.2473, 0.8426,-0.5203,-0.6096, 2.2818, 0.0065,-0.4551,-0.8647,-2.6540
09-Sep-2020 10:51:09.091,-0.2283, 0.8011,-0.5249,-0.5778, 2.3147,-0.0470,-0.4354,-0.8702,-2.6579
09-Sep-2020 10:51:09.101,-0.2059, 0.8092,-0.5275,-0.5729, 2.1978,-0.0936,-0.4157,-0.8753,-2.6621
09-Sep-2020 10:51:09.111,-0.1828, 0.8553,-0.5268,-0.6025, 1.9370,-0.0806,-0.3975,-0.8802,-2.6668
09-Sep-2020 10:51:09.121,-0.1587, 0.8501,-0.5742,-0.6442, 1.6036, 0.0078,-0.3818,-0.8855,-2.6714
09-Sep-2020 10:51:09.131,-0.1510, 0.8159,-0.6033,-0.6547, 1.3553, 0.1263,-0.3685,-0.8915,-2.6748
09-Sep-2020 10:51:09.141,-0.1620, 0.7706,-0.5907,-0.6406, 1.2840, 0.2213,-0.3562,-0.8980,-2.6765
09-Sep-2020 10:51:09.151,-0.1948, 0.7482,-0.5662,-0.6117, 1.2888, 0.2705,-0.3435,-0.9047,-2.6766
09-Sep-2020 10:51:09.161,-0.2206, 0.7593,-0.5450,-0.5797, 1.2425, 0.2560,-0.3300,-0.9113,-2.6757
09-Sep-2020 10:51:09.171,-0.2439, 0.8226,-0.5223,-0.4953, 1.1137, 0.1443,-0.3169,-0.9175,-2.6747
09-Sep-2020 10:51:09.181,-0.2620, 0.9207,-0.5326,-0.3215, 0.8344,-0.0344,-0.3060,-0.9226,-2.6748
09-Sep-2020 10:51:09.191,-0.2714, 1.0145,-0.5910,-0.0802, 0.4595,-0.2692,-0.2994,-0.9255,-2.6768
09-Sep-2020 10:51:09.201,-0.2753, 1.0341,-0.6552, 0.1733, 0.0764,-0.5384,-0.2985,-0.9254,-2.6814
09-Sep-2020 10:51:09.210,-0.2753, 0.9727,-0.6597, 0.3579,-0.2081,-0.8186,-0.3037,-0.9222,-2.6889
09-Sep-2020 10:51:09.220,-0.2732, 0.8811,-0.5896, 0.4226,-0.1727,-1.0706,-0.3142,-0.9164,-2.6998
09-Sep-2020 10:51:09.230,-0.2752, 0.7926,-0.5216, 0.4043, 0.0828,-1.1991,-0.3270,-0.9092,-2.7139
09-Sep-2020 10:51:09.240,-0.2726, 0.7414,-0.4951, 0.3800, 0.4133,-1.1789,-0.3386,-0.9015,-2.7298
09-Sep-2020 10:51:09.250,-0.2433, 0.7178,-0.5317, 0.4093, 0.4771,-1.0741,-0.3467,-0.8939,-2.7453
09-Sep-2020 10:51:09.260,-0.2713, 0.7010,-0.5661, 0.5071,-0.3922,-0.9472,-0.3533,-0.8864,-2.7588
09-Sep-2020 10:51:09.270,-0.4378, 0.6862,-0.4279, 0.5402,-0.7412,-0.9855,-0.3655,-0.8784,-2.7700
09-Sep-2020 10:51:09.281,-0.4487, 0.6214,-0.3366, 0.5246,-0.2246,-1.0916,-0.3807,-0.8698,-2.7811
09-Sep-2020 10:51:09.290,-0.2891, 0.6064,-0.3716, 0.5086, 0.2639,-1.0344,-0.3923,-0.8609,-2.7933
09-Sep-2020 10:51:09.300,-0.2470, 0.6085,-0.3738, 0.4469, 0.5630,-0.8351,-0.3984,-0.8523,-2.8046
09-Sep-2020 10:51:09.310,-0.3050, 0.6167,-0.3605, 0.3597, 0.8613,-0.6454,-0.3994,-0.8450,-2.8134
09-Sep-2020 10:51:09.320,-0.3609, 0.6863,-0.3783, 0.2471, 1.0885,-0.5510,-0.3960,-0.8392,-2.8202
09-Sep-2020 10:51:09.330,-0.3680, 0.7721,-0.4100, 0.0478, 1.1338,-0.5465,-0.3898,-0.8349,-2.8263
09-Sep-2020 10:51:09.340,-0.3303, 0.8059,-0.4415,-0.2572, 1.0774,-0.5905,-0.3840,-0.8324,-2.8335
09-Sep-2020 10:51:09.350,-0.2831, 0.8048,-0.4996,-0.6698, 0.8714,-0.6640,-0.3803,-0.8327,-2.8430
09-Sep-2020 10:51:09.360,-0.2627, 0.7688,-0.6175,-0.9815, 0.5495,-0.7574,-0.3811,-0.8363,-2.8557
09-Sep-2020 10:51:09.370,-0.2502, 0.7773,-0.6902,-1.0755, 0.2426,-0.7754,-0.3873,-0.8425,-2.8713
09-Sep-2020 10:51:09.380,-0.2546, 0.7428,-0.6756,-0.9555, 0.0698,-0.8161,-0.3974,-0.8493,-2.8881
09-Sep-2020 10:51:09.390,-0.2547, 0.7146,-0.6327,-0.7120, 0.1057,-0.8961,-0.4093,-0.8548,-2.9050
09-Sep-2020 10:51:09.400, 0.0548, 0.8497,-0.9895, 0.0417,-0.3261,-0.5771,-0.4208,-0.8573,-2.9207
09-Sep-2020 10:51:09.409,-0.1597, 0.8263,-0.6672, 0.4410,-0.1723,-0.5056,-0.4298,-0.8548,-2.9289
09-Sep-2020 10:51:09.419,-0.1641, 0.7467,-0.5229, 0.4643, 0.2286,-0.4371,-0.4345,-0.8489,-2.9331
09-Sep-2020 10:51:09.429,-0.0967, 0.8393,-0.7015, 0.4453, 0.2504,-0.2872,-0.4346,-0.8430,-2.9359
09-Sep-2020 10:51:09.439,-0.1992, 0.8944,-0.7726, 0.4385, 0.2288,-0.2165,-0.4329,-0.8377,-2.9370
09-Sep-2020 10:51:09.449,-0.2472, 0.8244,-0.7805, 0.3966, 0.2901,-0.2238,-0.4307,-0.8329,-2.9371
09-Sep-2020 10:51:09.460,-0.2697, 0.7719,-0.8997, 0.4914, 0.2332,-0.3023,-0.4282,-0.8283,-2.9376
09-Sep-2020 10:51:09.469,-0.2911, 0.7660,-0.8638, 0.6766, 0.1740,-0.3882,-0.4265,-0.8225,-2.9385
09-Sep-2020 10:51:09.479,-0.3606, 0.7820,-0.7156, 0.8107, 0.1031,-0.4521,-0.4255,-0.8148,-2.9394
09-Sep-2020 10:51:09.489,-0.3931, 0.7626,-0.6107, 0.8025,-0.0165,-0.4990,-0.4255,-0.8057,-2.9406
09-Sep-2020 10:51:09.499,-0.2298, 0.6620,-0.6184, 0.8845, 0.0729,-0.2701,-0.4265,-0.7964,-2.9420
09-Sep-2020 10:51:09.509,-0.2132, 0.6551,-0.6102, 0.8649, 0.1671,-0.0385,-0.4245,-0.7874,-2.9402
09-Sep-2020 10:51:09.519,-0.1310, 0.6366,-0.7016, 0.8576, 0.2918, 0.1893,-0.4196,-0.7794,-2.9356
09-Sep-2020 10:51:09.529,-0.1021, 0.6247,-0.6895, 0.7909, 0.4856, 0.3837,-0.4115,-0.7723,-2.9283
09-Sep-2020 10:51:09.539,-0.0910, 0.6246,-0.7226, 0.7061, 0.5846, 0.6075,-0.4003,-0.7667,-2.9190
09-Sep-2020 10:51:09.549,-0.0963, 0.5758,-0.8061, 0.5917, 0.4786, 0.9824,-0.3865,-0.7625,-2.9073
09-Sep-2020 10:51:09.559,-0.1003, 0.5126,-0.8448, 0.4058, 0.2891, 1.4689,-0.3709,-0.7607,-2.8915
09-Sep-2020 10:51:09.569,-0.1523, 0.5757,-0.8058, 0.2232, 0.2552, 1.7963,-0.3536,-0.7621,-2.8707
09-Sep-2020 10:51:09.579,-0.1879, 0.6384,-0.7751, 0.1028, 0.2654, 1.8949,-0.3342,-0.7660,-2.8464
09-Sep-2020 10:51:09.589,-0.1771, 0.6115,-0.7712, 0.0763, 0.2791, 1.8936,-0.3140,-0.7709,-2.8210
09-Sep-2020 10:51:09.599,-0.1693, 0.5568,-0.7559, 0.0776, 0.2191, 1.8847,-0.2934,-0.7758,-2.7955
09-Sep-2020 10:51:09.609,-0.1792, 0.5232,-0.7230, 0.0767, 0.1553, 1.8631,-0.2732,-0.7803,-2.7698
09-Sep-2020 10:51:09.619,-0.2228, 0.5481,-0.7079, 0.0570, 0.0243, 1.8078,-0.2536,-0.7844,-2.7442
09-Sep-2020 10:51:09.628,-0.2640, 0.6030,-0.7017, 0.0354,-0.1614, 1.7044,-0.2358,-0.7882,-2.7192
09-Sep-2020 10:51:09.638,-0.2819, 0.6507,-0.7207, 0.0674,-0.3570, 1.6098,-0.2206,-0.7916,-2.6955
09-Sep-2020 10:51:09.649,-0.2938, 0.7173,-0.7281, 0.1031,-0.5243, 1.5527,-0.2080,-0.7943,-2.6728
09-Sep-2020 10:51:09.658,-0.2897, 0.7437,-0.7152, 0.1105,-0.5767, 1.5507,-0.1974,-0.7965,-2.6508
09-Sep-2020 10:51:09.668,-0.2312, 0.7008,-0.7394, 0.1171,-0.4595, 1.6823,-0.1871,-0.7983,-2.6286
09-Sep-2020 10:51:09.678,-0.1315, 0.6394,-0.7561, 0.1283,-0.1952, 2.0848,-0.1742,-0.8002,-2.6042
09-Sep-2020 10:51:09.688,-0.0535, 0.6193,-0.7387, 0.1257, 0.1012, 2.7488,-0.1545,-0.8024,-2.5741
09-Sep-2020 10:51:09.698,-0.0475, 0.6694,-0.7155, 0.1343, 0.3225, 3.4872,-0.1251,-0.8049,-2.5347
09-Sep-2020 10:51:09.708,-0.0855, 0.7685,-0.6803, 0.1589, 0.4261, 4.1132,-0.0859,-0.8072,-2.4846
09-Sep-2020 10:51:09.718,-0.1099, 0.8577,-0.6321, 0.2035, 0.5024, 4.5721,-0.0389,-0.8081,-2.4254
09-Sep-2020 10:51:09.728,-0.1219, 0.9027,-0.6192, 0.2462, 0.4971, 4.8705, 0.0136,-0.8067,-2.3596
09-Sep-2020 10:51:09.738,-0.1171, 0.8815,-0.6089, 0.2594, 0.4536, 5.0229, 0.0688,-0.8022,-2.2899
09-Sep-2020 10:51:09.748,-0.0951, 0.8617,-0.6105, 0.2803, 0.3272, 5.0807, 0.1241,-0.7948,-2.2189
09-Sep-2020 10:51:09.758,-0.0827, 0.8835,-0.5834, 0.3017, 0.1757, 5.0629, 0.1773,-0.7844,-2.1485
09-Sep-2020 10:51:09.768,-0.0657, 0.9098,-0.5708, 0.3404,-0.0171, 4.9615, 0.2271,-0.7713,-2.0800
09-Sep-2020 10:51:09.778,-0.0236, 0.9101,-0.5632, 0.3860,-0.2426, 4.7877, 0.2719,-0.7557,-2.0149
09-Sep-2020 10:51:09.788, 0.0593, 0.8873,-0.5615, 0.4401,-0.4084, 4.5963, 0.3108,-0.7383,-1.9542
09-Sep-2020 10:51:09.798, 0.1786, 0.8527,-0.5669, 0.5383,-0.4073, 4.4674, 0.3443,-0.7193,-1.8979
09-Sep-2020 10:51:09.807, 0.3075, 0.8114,-0.5650, 0.6471,-0.2757, 4.4788, 0.3746,-0.6986,-1.8453
09-Sep-2020 10:51:09.817, 0.4106, 0.7631,-0.6027, 0.7535,-0.1494, 4.6377, 0.4038,-0.6756,-1.7950
09-Sep-2020 10:51:09.828, 0.4433, 0.7374,-0.6162, 0.8321,-0.0535, 4.8577, 0.4329,-0.6499,-1.7452
09-Sep-2020 10:51:09.837, 0.4683, 0.7823,-0.6190, 0.8457,-0.0733, 5.0564, 0.4618,-0.6215,-1.6954
09-Sep-2020 10:51:09.847, 0.4246, 0.7663,-0.6196, 0.7968,-0.2030, 5.1515, 0.4894,-0.5910,-1.6456
09-Sep-2020 10:51:09.857, 0.3670, 0.7226,-0.6012, 0.7890,-0.1269, 5.1084, 0.5142,-0.5593,-1.5967
09-Sep-2020 10:51:09.867, 0.4118, 0.6253,-0.6110, 0.8643, 0.0408, 5.0070, 0.5371,-0.5269,-1.5499
09-Sep-2020 10:51:09.878, 0.4882, 0.4862,-0.4858, 0.1324, 1.2373, 4.5062, 0.5601,-0.4942,-1.5062
09-Sep-2020 10:51:09.887, 0.6866, 0.5251,-0.9744, 0.0940,-0.0128, 4.3942, 0.5882,-0.4675,-1.4646
09-Sep-2020 10:51:09.897, 0.5125, 0.5996,-0.5621, 0.3240, 0.2617, 4.2081, 0.6068,-0.4420,-1.4251
09-Sep-2020 10:51:09.907, 0.4690, 0.5086,-0.5780, 0.4246, 0.4461, 3.9426, 0.6240,-0.4152,-1.3895
09-Sep-2020 10:51:09.917, 0.4954, 0.3843,-0.7615, 0.4037, 0.2538, 3.7146, 0.6406,-0.3886,-1.3577
09-Sep-2020 10:51:09.927, 0.4889, 0.3277,-0.6882, 0.2664, 0.0589, 3.5055, 0.6539,-0.3630,-1.3285
09-Sep-2020 10:51:09.937, 0.4844, 0.3087,-0.5939, 0.0742, 0.0042, 3.2685, 0.6641,-0.3395,-1.3008
09-Sep-2020 10:51:09.947, 0.4890, 0.2816,-0.5826,-0.1292,-0.0042, 3.0124, 0.6727,-0.3187,-1.2743
09-Sep-2020 10:51:09.957, 0.4904, 0.2581,-0.6179,-0.2931,-0.0160, 2.7507, 0.6803,-0.3009,-1.2489
09-Sep-2020 10:51:09.967, 0.4997, 0.2583,-0.6778,-0.3763,-0.1272, 2.4875, 0.6871,-0.2857,-1.2248
09-Sep-2020 10:51:09.977, 0.4888, 0.2650,-0.6774,-0.3682,-0.3293, 2.2239, 0.6919,-0.2728,-1.2025
09-Sep-2020 10:51:09.987, 0.4908, 0.2652,-0.6656,-0.3319,-0.5183, 1.9775, 0.6939,-0.2613,-1.1824
09-Sep-2020 10:51:09.996, 0.5215, 0.2934,-0.7308,-0.3507,-0.6914, 1.7543, 0.6933,-0.2513,-1.1645
09-Sep-2020 10:51:10.006, 0.6178, 0.3491,-0.8421,-0.3737,-0.8250, 1.6046, 0.6904,-0.2427,-1.1483
09-Sep-2020 10:51:10.016, 0.7463, 0.3868,-0.9250,-0.0663,-0.4733, 1.4906, 0.6863,-0.2347,-1.1335
09-Sep-2020 10:51:10.026, 0.8109, 0.3861,-0.6277,-0.2549,-0.2137, 1.4655, 0.6844,-0.2260,-1.1210
09-Sep-2020 10:51:10.036, 0.7076, 0.3534,-0.7422,-0.1871, 0.0245, 1.3801, 0.6851,-0.2186,-1.1079
09-Sep-2020 10:51:10.046, 0.5816, 0.3654,-0.7820,-0.0027,-0.1032, 1.2692, 0.6876,-0.2112,-1.0958
09-Sep-2020 10:51:10.057, 0.4843, 0.4094,-0.7858, 0.3065,-0.1945, 1.1193, 0.6887,-0.2031,-1.0858
09-Sep-2020 10:51:10.066, 0.4053, 0.4156,-0.7574, 0.4875,-0.3867, 0.9579, 0.6880,-0.1937,-1.0789
09-Sep-2020 10:51:10.076, 0.3403, 0.3957,-0.7513, 0.5749,-0.3691, 0.8595, 0.6852,-0.1838,-1.0745
09-Sep-2020 10:51:10.086, 0.2987, 0.4018,-0.7711, 0.5850,-0.2039, 0.8011, 0.6821,-0.1740,-1.0713
09-Sep-2020 10:51:10.096, 0.3323, 0.3737,-0.8828, 0.7438, 0.1349, 0.7953, 0.6807,-0.1642,-1.0688
09-Sep-2020 10:51:10.106, 0.2477, 0.4899,-0.9263, 1.0657, 0.7023, 0.5957, 0.6824,-0.1534,-1.0674
09-Sep-2020 10:51:10.116, 0.3362, 0.6393,-1.0112, 1.6120, 1.4053, 0.3661, 0.6892,-0.1413,-1.0697
09-Sep-2020 10:51:10.126, 0.5858, 0.6169,-0.9735, 2.0241, 1.4702, 0.2642, 0.7017,-0.1266,-1.0770
09-Sep-2020 10:51:10.136, 1.1177, 0.4003,-0.6233, 2.2263, 1.5023, 0.4424, 0.7151,-0.1095,-1.0880
09-Sep-2020 10:51:10.146, 0.9067, 0.1748,-0.4006, 2.1499, 1.2245, 0.7384, 0.7287,-0.0900,-1.0992
09-Sep-2020 10:51:10.156, 0.5283, 0.1752,-0.4132, 1.6794, 0.5264, 0.8121, 0.7399,-0.0694,-1.1080
09-Sep-2020 10:51:10.166, 0.6239, 0.3008,-0.2700, 0.9019, 0.1121, 0.9219, 0.7451,-0.0517,-1.1132
09-Sep-2020 10:51:10.176, 0.6054, 0.3708,-0.2206, 0.1424,-0.2851, 0.9998, 0.7462,-0.0388,-1.1125
09-Sep-2020 10:51:10.186, 0.5058, 0.3239,-0.2702,-0.3525,-0.5401, 0.9961, 0.7436,-0.0309,-1.1063
09-Sep-2020 10:51:10.196, 0.5367, 0.2163,-0.3741,-0.6179,-0.5988, 0.9895, 0.7386,-0.0266,-1.0967
09-Sep-2020 10:51:10.206, 0.4836, 0.1493,-0.4292,-0.8142,-0.5817, 0.8815, 0.7330,-0.0244,-1.0853
09-Sep-2020 10:51:10.216, 0.4077, 0.1194,-0.4511,-1.0552,-0.5331, 0.7040, 0.7275,-0.0246,-1.0733
09-Sep-2020 10:51:10.225, 0.3933, 0.1096,-0.4838,-1.3442,-0.5244, 0.5263, 0.7225,-0.0278,-1.0610
09-Sep-2020 10:51:10.235, 0.3725, 0.0930,-0.5105,-1.6168,-0.4995, 0.3705, 0.7177,-0.0343,-1.0482
09-Sep-2020 10:51:10.246, 0.3723, 0.0409,-0.5445,-1.8254,-0.4299, 0.2571, 0.7132,-0.0439,-1.0349
09-Sep-2020 10:51:10.255, 0.3697,-0.0034,-0.5760,-2.0092,-0.3684, 0.1543, 0.7096,-0.0560,-1.0210
09-Sep-2020 10:51:10.265, 0.3711,-0.0471,-0.5934,-2.2084,-0.3310, 0.0505, 0.7068,-0.0701,-1.0068
09-Sep-2020 10:51:10.275, 0.3721,-0.0762,-0.5947,-2.4471,-0.3211,-0.0572, 0.7047,-0.0865,-0.9920
09-Sep-2020 10:51:10.285, 0.3659,-0.0739,-0.6071,-2.7012,-0.3403,-0.1904, 0.7029,-0.1053,-0.9766
09-Sep-2020 10:51:10.295, 0.3915,-0.0544,-0.6460,-2.9172,-0.3791,-0.2967, 0.7014,-0.1270,-0.9606
09-Sep-2020 10:51:10.305, 0.4378,-0.0287,-0.7172,-3.0351,-0.4499,-0.3396, 0.6999,-0.1510,-0.9439
09-Sep-2020 10:51:10.315, 0.4597,-0.0200,-0.7838,-3.0438,-0.4487,-0.3351, 0.6982,-0.1761,-0.9268
09-Sep-2020 10:51:10.325, 0.4485,-0.0021,-0.8419,-2.9846,-0.4229,-0.3569, 0.6970,-0.2014,-0.9096
09-Sep-2020 10:51:10.335, 0.4262, 0.0211,-0.9106,-2.9118,-0.4593,-0.4661, 0.6962,-0.2264,-0.8929
09-Sep-2020 10:51:10.345, 0.4168, 0.0244,-0.9402,-2.8240,-0.4919,-0.6455, 0.6953,-0.2516,-0.8775
09-Sep-2020 10:51:10.355, 0.4446,-0.0003,-0.9385,-2.7216,-0.4934,-0.8148, 0.6940,-0.2772,-0.8639
09-Sep-2020 10:51:10.365, 0.5101,-0.0282,-0.9533,-2.6613,-0.5013,-0.8905, 0.6924,-0.3031,-0.8523
09-Sep-2020 10:51:10.375, 0.5576, 0.0083,-0.9822,-2.6543,-0.5285,-0.8866, 0.6907,-0.3291,-0.8416
09-Sep-2020 10:51:10.385, 0.5884, 0.0919,-1.0356,-2.6167,-0.5260,-0.8438, 0.6890,-0.3550,-0.8309
09-Sep-2020 10:51:10.395, 0.6237, 0.1944,-1.1283,-2.4691,-0.5256,-0.7993, 0.6876,-0.3803,-0.8202
09-Sep-2020 10:51:10.405, 0.6437, 0.2874,-1.2044,-2.1841,-0.4639,-0.8094, 0.6863,-0.4043,-0.8100
09-Sep-2020 10:51:10.415, 0.6395, 0.3438,-1.2250,-1.7905,-0.2751,-0.8635, 0.6850,-0.4261,-0.8018
09-Sep-2020 10:51:10.424, 0.6474, 0.3771,-1.1903,-1.4008,-0.0216,-0.9198, 0.6845,-0.4453,-0.7967
09-Sep-2020 10:51:10.434, 0.6820, 0.4089,-1.1333,-1.1129, 0.2194,-0.9193, 0.6852,-0.4618,-0.7947
09-Sep-2020 10:51:10.444, 0.7280, 0.4258,-1.0848,-0.9203, 0.3438,-0.8767, 0.6873,-0.4761,-0.7946
09-Sep-2020 10:51:10.454, 0.7518, 0.4449,-1.0572,-0.7534, 0.3594,-0.8384, 0.6901,-0.4887,-0.7956
09-Sep-2020 10:51:10.464, 0.7413, 0.4817,-1.0517,-0.5714, 0.2660,-0.8581, 0.6928,-0.4997,-0.7975
09-Sep-2020 10:51:10.474, 0.7529, 0.5023,-1.0476,-0.3628, 0.0927,-0.8733, 0.6937,-0.5095,-0.8008
09-Sep-2020 10:51:10.484, 0.7934, 0.5084,-1.0336,-0.1354,-0.0328,-0.8237, 0.6922,-0.5177,-0.8058
09-Sep-2020 10:51:10.494, 0.8253, 0.5060,-1.0126, 0.0718,-0.1193,-0.7036, 0.6888,-0.5239,-0.8120
09-Sep-2020 10:51:10.504, 0.8300, 0.5121,-0.9715, 0.2388,-0.1367,-0.5455, 0.6843,-0.5277,-0.8187
09-Sep-2020 10:51:10.514, 0.8163, 0.5210,-0.9431, 0.3733,-0.1253,-0.4101, 0.6797,-0.5292,-0.8252
09-Sep-2020 10:51:10.524, 0.8055, 0.5331,-0.9155, 0.5086,-0.0731,-0.3336, 0.6752,-0.5288,-0.8316
09-Sep-2020 10:51:10.534, 0.8019, 0.5389,-0.8710, 0.6488, 0.0069,-0.3138, 0.6711,-0.5269,-0.8383
09-Sep-2020 10:51:10.544, 0.8305, 0.5358,-0.8220, 0.7741, 0.1078,-0.3048, 0.6675,-0.5237,-0.8457
09-Sep-2020 10:51:10.554, 0.8785, 0.5343,-0.7785, 0.8578, 0.1884,-0.2512, 0.6645,-0.5195,-0.8539
09-Sep-2020 10:51:10.564, 0.9229, 0.5302,-0.7501, 0.8960, 0.2370,-0.1534, 0.6622,-0.5142,-0.8621
09-Sep-2020 10:51:10.574, 0.9536, 0.5419,-0.7541, 0.9141, 0.2496,-0.0067, 0.6609,-0.5080,-0.8697
09-Sep-2020 10:51:10.584, 0.9707, 0.5638,-0.7747, 0.9310, 0.2434, 0.1602, 0.6602,-0.5008,-0.8760
09-Sep-2020 10:51:10.594, 0.9853, 0.5758,-0.7919, 0.9814, 0.2270, 0.3411, 0.6602,-0.4924,-0.8810
09-Sep-2020 10:51:10.604, 0.9830, 0.5800,-0.7908, 1.0573, 0.2096, 0.5298, 0.6608,-0.4825,-0.8847
09-Sep-2020 10:51:10.614, 0.9460, 0.5977,-0.7834, 1.1139, 0.1782, 0.6748, 0.6616,-0.4709,-0.8873
09-Sep-2020 10:51:10.624, 0.9046, 0.6040,-0.7898, 1.1421, 0.1143, 0.7593, 0.6626,-0.4580,-0.8890
09-Sep-2020 10:51:10.634, 0.8802, 0.5980,-0.7922, 1.1418, 0.0795, 0.7831, 0.6633,-0.4444,-0.8901
09-Sep-2020 10:51:10.644, 0.8538, 0.5734,-0.7898, 1.1212, 0.1448, 0.7498, 0.6637,-0.4306,-0.8910
09-Sep-2020 10:51:10.654, 0.8564, 0.5273,-0.8008, 1.0902, 0.3254, 0.7391, 0.6648,-0.4171,-0.8921
09-Sep-2020 10:51:10.664, 0.8907, 0.5056,-0.8415, 1.0424, 0.5114, 0.8013, 0.6677,-0.4040,-0.8930
09-Sep-2020 10:51:10.674, 0.9270, 0.5187,-0.8900, 1.0011, 0.6491, 0.9126, 0.6727,-0.3908,-0.8931
09-Sep-2020 10:51:10.683, 0.9494, 0.5482,-0.9530, 1.0261, 0.6731, 1.0402, 0.6794,-0.3772,-0.8922
09-Sep-2020 10:51:10.693, 0.9439, 0.5807,-1.0180, 1.1234, 0.5797, 1.1473, 0.6866,-0.3627,-0.8905
09-Sep-2020 10:51:10.704, 0.8960, 0.6109,-1.0340, 1.2941, 0.4586, 1.2202, 0.6930,-0.3467,-0.8887
09-Sep-2020 10:51:10.713, 0.8291, 0.6158,-0.9924, 1.4752, 0.4057, 1.2435, 0.6980,-0.3289,-0.8875
09-Sep-2020 10:51:10.723, 0.7821, 0.5818,-0.9680, 1.6254, 0.3199, 1.2065, 0.7020,-0.3097,-0.8875
09-Sep-2020 10:51:10.733, 0.7808, 0.4975,-0.8829, 1.7359, 0.4054, 1.1485, 0.7049,-0.2896,-0.8889
09-Sep-2020 10:51:10.743, 0.7230, 0.3855,-0.8212, 1.7671, 0.4782, 1.1780, 0.7082,-0.2689,-0.8914
09-Sep-2020 10:51:10.753, 0.6816, 0.3127,-0.6841, 1.7264, 0.9234, 1.2166, 0.7126,-0.2479,-0.8940
09-Sep-2020 10:51:10.765, 0.6056, 0.2365,-0.6516, 1.6137, 1.3078, 1.2395, 0.7211,-0.2270,-0.8961
09-Sep-2020 10:51:10.773, 0.4338, 0.2816,-0.6169, 1.5467, 1.7389, 1.0955, 0.7339,-0.2067,-0.8977
09-Sep-2020 10:51:10.783, 0.2430, 0.3688,-0.5910, 1.5255, 1.9649, 0.7980, 0.7505,-0.1880,-0.9002
09-Sep-2020 10:51:10.793, 0.0328, 0.4061,-0.4319, 1.3780, 2.2705, 0.2928, 0.7692,-0.1715,-0.9049
09-Sep-2020 10:51:10.803,-0.2531, 0.3759,-0.1068, 1.0132, 2.8442,-0.4735, 0.7907,-0.1599,-0.9126
09-Sep-2020 10:51:10.813,-0.2232, 0.2781, 0.0333, 0.6537, 3.2458,-1.1336, 0.8172,-0.1562,-0.9232
09-Sep-2020 10:51:10.822, 0.1379, 0.2251, 0.0526, 0.3653, 3.3424,-1.4389, 0.8474,-0.1599,-0.9356
09-Sep-2020 10:51:10.833, 0.5080, 0.2384,-0.0572, 0.0720, 3.0229,-1.4369, 0.8785,-0.1682,-0.9476
09-Sep-2020 10:51:10.842, 0.6654, 0.2612,-0.2380,-0.1171, 2.3725,-1.3576, 0.9066,-0.1787,-0.9573
09-Sep-2020 10:51:10.852, 0.6676, 0.2632,-0.3671,-0.1563, 1.7108,-1.3343, 0.9288,-0.1900,-0.9648
09-Sep-2020 10:51:10.862, 0.6236, 0.2714,-0.4344,-0.1358, 1.2193,-1.3854, 0.9446,-0.2016,-0.9716
09-Sep-2020 10:51:10.873, 0.5504, 0.2385,-0.3973,-0.1807, 0.9154,-1.4590, 0.9554,-0.2136,-0.9786
09-Sep-2020 10:51:10.883, 0.5127, 0.1851,-0.3567,-0.2080, 0.7954,-1.4877, 0.9631,-0.2264,-0.9856
09-Sep-2020 10:51:10.892, 0.4776, 0.1547,-0.3694,-0.1948, 0.7804,-1.5484, 0.9695,-0.2397,-0.9925
09-Sep-2020 10:51:10.902, 0.5126, 0.1095,-0.4106,-0.2479, 0.6488,-1.6025, 0.9754,-0.2535,-0.9998
09-Sep-2020 10:51:10.912, 0.4880, 0.1118,-0.4464,-0.3760, 0.3451,-1.7329, 0.9799,-0.2681,-1.0068
09-Sep-2020 10:51:10.922, 0.4856, 0.1218,-0.4452,-0.4761, 0.0631,-1.8914, 0.9815,-0.2844,-1.0136
09-Sep-2020 10:51:10.932, 0.4340, 0.1738,-0.4784,-0.4500,-0.1425,-2.1658, 0.9801,-0.3026,-1.0205
09-Sep-2020 10:51:10.942, 0.2924, 0.2152,-0.4748,-0.3950,-0.2050,-2.6164, 0.9761,-0.3230,-1.0293
09-Sep-2020 10:51:10.952, 0.2041, 0.2413,-0.5487,-0.3745,-0.2996,-3.1947, 0.9700,-0.3467,-1.0414
09-Sep-2020 10:51:10.962, 0.4903, 0.3091,-0.5615,-0.4350,-0.2660,-3.4698, 0.9615,-0.3748,-1.0573
09-Sep-2020 10:51:10.972, 0.6329, 0.2906,-0.5427,-0.5041, 0.0165,-3.4870, 0.9524,-0.4054,-1.0749
09-Sep-2020 10:51:10.982, 0.8904, 0.4033,-0.6551,-0.4679, 0.1707,-3.2446, 0.9451,-0.4363,-1.0926
09-Sep-2020 10:51:10.992, 1.4615, 0.3338,-0.3588,-0.6834, 0.5915,-2.4469, 0.9399,-0.4649,-1.1091
09-Sep-2020 10:51:11.002, 1.6987, 0.3367,-0.3218,-0.9818, 0.6454,-1.4997, 0.9410,-0.4884,-1.1189
09-Sep-2020 10:51:11.012, 1.5951, 0.4930,-0.5365,-1.0425, 0.1550,-0.8135, 0.9465,-0.5062,-1.1201
09-Sep-2020 10:51:11.022, 1.3281, 0.6326,-0.5566,-0.9792,-0.6129,-0.6553, 0.9498,-0.5189,-1.1161
09-Sep-2020 10:51:11.032, 1.0635, 0.6725,-0.4250,-0.9946,-1.3601,-0.8783, 0.9460,-0.5301,-1.1115
09-Sep-2020 10:51:11.042, 0.7881, 0.6565,-0.3884,-1.0273,-1.8396,-1.2653, 0.9343,-0.5430,-1.1082
09-Sep-2020 10:51:11.052, 0.5060, 0.6175,-0.3802,-0.9861,-1.8974,-1.6996, 0.9167,-0.5591,-1.1075
09-Sep-2020 10:51:11.062, 0.3622, 0.4974,-0.2303,-1.0853,-1.4392,-2.0804, 0.8965,-0.5785,-1.1106
09-Sep-2020 10:51:11.072, 0.4093, 0.5124,-0.1881,-1.3833,-0.8656,-2.3013, 0.8793,-0.6013,-1.1160
09-Sep-2020 10:51:11.081, 0.4390, 0.5996,-0.2298,-1.8036,-0.3729,-2.4460, 0.8678,-0.6277,-1.1209
09-Sep-2020 10:51:11.091, 0.4928, 0.6546,-0.5656,-2.1572,-0.2876,-2.4386, 0.8623,-0.6577,-1.1235
09-Sep-2020 10:51:11.101, 0.4608, 0.5037,-1.0100,-2.2185,-0.5666,-2.2745, 0.8593,-0.6898,-1.1230
09-Sep-2020 10:51:11.111, 0.3078, 0.4426,-0.7612,-2.0409,-0.2066,-2.0545, 0.8558,-0.7212,-1.1207
09-Sep-2020 10:51:11.122, 0.2420, 0.4788,-0.7099,-1.7510,-0.2389,-1.7911, 0.8551,-0.7498,-1.1181
09-Sep-2020 10:51:11.131, 0.3080, 0.6669,-1.0161,-1.3908,-0.7330,-1.5888, 0.8538,-0.7746,-1.1162
09-Sep-2020 10:51:11.141, 0.2543, 0.8438,-1.0708,-1.0126,-1.0436,-1.5910, 0.8464,-0.7956,-1.1163
09-Sep-2020 10:51:11.151, 0.1540, 0.7847,-0.7672,-0.6555,-0.7496,-1.6612, 0.8333,-0.8141,-1.1208
09-Sep-2020 10:51:11.161, 0.1841, 0.6581,-0.4658,-0.5344,-0.2840,-1.5804, 0.8193,-0.8306,-1.1298
09-Sep-2020 10:51:11.171, 0.2919, 0.5851,-0.1290,-0.8357, 0.0985,-1.3963, 0.8090,-0.8458,-1.1398
09-Sep-2020 10:51:11.181, 0.4332, 0.6125, 0.3810,-1.8244, 0.3205,-1.1868, 0.8062,-0.8618,-1.1447
09-Sep-2020 10:51:11.191, 0.5434, 0.6754, 0.3961,-2.8568, 0.1409,-0.9911, 0.8151,-0.8829,-1.1368
09-Sep-2020 10:51:11.201, 0.5050, 0.6970,-0.0059,-3.1212,-0.1452,-0.9659, 0.8336,-0.9091,-1.1148
09-Sep-2020 10:51:11.211, 0.5259, 0.7908,-0.2574,-2.7138,-0.1637,-1.0919, 0.8541,-0.9366,-1.0875
09-Sep-2020 10:51:11.222, 0.6178, 0.9554,-0.2885,-2.0648, 0.0885,-1.2231, 0.8713,-0.9622,-1.0646
09-Sep-2020 10:51:11.231, 0.7426, 1.0999,-0.3118,-1.4955,-0.0299,-1.1103, 0.8840,-0.9846,-1.0500
09-Sep-2020 10:51:11.241, 0.8100, 1.0967,-0.3400,-1.0172,-0.4949,-0.8086, 0.8907,-1.0024,-1.0414
09-Sep-2020 10:51:11.251, 0.8092, 1.0347,-0.2848,-0.5711,-0.8732,-0.4440, 0.8904,-1.0149,-1.0360
09-Sep-2020 10:51:11.261, 0.6516, 0.9992,-0.1794,-0.2329,-1.0477,-0.2158, 0.8845,-1.0220,-1.0329
09-Sep-2020 10:51:11.271, 0.4886, 1.0035,-0.1585,-0.0294,-1.0338,-0.1478, 0.8749,-1.0252,-1.0320
09-Sep-2020 10:51:11.280, 0.4115, 1.0021,-0.2188, 0.1031,-0.8338,-0.0996, 0.8636,-1.0264,-1.0333
09-Sep-2020 10:51:11.290, 0.3705, 1.0287,-0.3290, 0.1922,-0.5447,-0.0461, 0.8530,-1.0264,-1.0360
09-Sep-2020 10:51:11.300, 0.3722, 1.0757,-0.4376, 0.2559,-0.2853,-0.0310, 0.8447,-1.0254,-1.0393
09-Sep-2020 10:51:11.310, 0.4266, 1.0818,-0.5221, 0.2918,-0.2304, 0.0004, 0.8383,-1.0239,-1.0433
09-Sep-2020 10:51:11.320, 0.4585, 1.0318,-0.5501, 0.3247,-0.3764, 0.0328, 0.8324,-1.0219,-1.0474
09-Sep-2020 10:51:11.330, 0.4519, 0.9523,-0.4882, 0.3269,-0.6239, 0.0299, 0.8251,-1.0194,-1.0515
09-Sep-2020 10:51:11.340, 0.4656, 0.9138,-0.3953, 0.2919,-0.8149,-0.0197, 0.8154,-1.0169,-1.0556
09-Sep-2020 10:51:11.351, 0.4337, 0.8611,-0.3199, 0.2605,-0.9081,-0.0967, 0.8038,-1.0150,-1.0598
09-Sep-2020 10:51:11.360, 0.3946, 0.7894,-0.3097, 0.2861,-1.0605,-0.1446, 0.7906,-1.0138,-1.0646
09-Sep-2020 10:51:11.370, 0.3592, 0.7613,-0.3237, 0.3991,-0.9810,-0.2085, 0.7753,-1.0127,-1.0703
09-Sep-2020 10:51:11.380, 0.2970, 0.7553,-0.3217, 0.5062,-0.4948,-0.3342, 0.7590,-1.0112,-1.0784
09-Sep-2020 10:51:11.390, 0.2458, 0.7439,-0.3216, 0.4670, 0.0944,-0.4662, 0.7449,-1.0098,-1.0893
09-Sep-2020 10:51:11.400, 0.2397, 0.7537,-0.3488, 0.2706, 0.4484,-0.4903, 0.7355,-1.0095,-1.1013
09-Sep-2020 10:51:11.410, 0.2625, 0.7250,-0.4007, 0.0864, 0.5110,-0.3965, 0.7312,-1.0106,-1.1113
09-Sep-2020 10:51:11.420, 0.3178, 0.7178,-0.4423,-0.0172, 0.3735,-0.2080, 0.7306,-1.0124,-1.1179
09-Sep-2020 10:51:11.430, 0.3233, 0.8088,-0.4248,-0.1078, 0.2639,-0.0291, 0.7321,-1.0138,-1.1205
09-Sep-2020 10:51:11.440, 0.3701, 0.8897,-0.4769,-0.2466,-0.0902, 0.0899, 0.7354,-1.0148,-1.1195
09-Sep-2020 10:51:11.450, 0.4981, 0.8525,-0.4307,-0.3724,-0.3587, 0.3230, 0.7385,-1.0159,-1.1150
09-Sep-2020 10:51:11.460, 0.4087, 0.8372,-0.2946,-0.5169,-0.1956, 0.4911, 0.7431,-1.0165,-1.1057
09-Sep-2020 10:51:11.470, 0.2442, 0.8432,-0.3210,-0.5450, 0.1751, 0.5213, 0.7525,-1.0168,-1.0924
09-Sep-2020 10:51:11.480, 0.2075, 0.8739,-0.3517,-0.5146, 0.4880, 0.4547, 0.7662,-1.0172,-1.0783
09-Sep-2020 10:51:11.490, 0.2802, 0.8808,-0.3604,-0.4713, 0.7345, 0.4106, 0.7821,-1.0176,-1.0652
09-Sep-2020 10:51:11.499, 0.3096, 0.8875,-0.3346,-0.4525, 0.9951, 0.3573, 0.7995,-1.0179,-1.0534
09-Sep-2020 10:51:11.509, 0.2779, 0.8600,-0.2817,-0.5929, 1.3640, 0.2716, 0.8189,-1.0185,-1.0424
09-Sep-2020 10:51:11.519, 0.0755, 0.7717,-0.2654,-0.8710, 1.4420,-0.0567, 0.8421,-1.0207,-1.0308
09-Sep-2020 10:51:11.529, 0.3516, 0.7979,-0.3023,-0.9361, 1.5788,-0.2236, 0.8668,-1.0265,-1.0190
09-Sep-2020 10:51:11.540, 0.4268, 0.9129,-0.2948,-0.8871, 1.8003,-0.5131, 0.8919,-1.0341,-1.0080
09-Sep-2020 10:51:11.549, 0.3971, 0.9940,-0.2638,-0.8787, 2.1643,-0.7958, 0.9165,-1.0435,-1.0004
09-Sep-2020 10:51:11.559, 0.3742, 1.1039,-0.2872,-0.9514, 2.4008,-0.8325, 0.9421,-1.0549,-0.9955
09-Sep-2020 10:51:11.569, 0.2803, 1.1629,-0.2904,-0.9696, 2.5829,-0.8064, 0.9713,-1.0670,-0.9894
09-Sep-2020 10:51:11.579, 0.2163, 1.0894,-0.1895,-0.9475, 2.6787,-0.8016, 1.0036,-1.0789,-0.9819
09-Sep-2020 10:51:11.589, 0.2431, 0.9765,-0.1486,-0.9011, 2.4198,-0.7650, 1.0373,-1.0905,-0.9736
09-Sep-2020 10:51:11.599, 0.1797, 0.9986,-0.1664,-0.7985, 2.0331,-0.8245, 1.0690,-1.1015,-0.9650
09-Sep-2020 10:51:11.609, 0.1036, 1.0196,-0.1839,-0.7319, 1.3447,-1.0341, 1.0954,-1.1125,-0.9578
09-Sep-2020 10:51:11.619, 0.0081, 0.9338,-0.1747,-0.6325, 0.5602,-1.4016, 1.1124,-1.1250,-0.9537
09-Sep-2020 10:51:11.629,-0.1976, 0.8173,-0.0969,-0.5165, 0.0490,-2.0067, 1.1170,-1.1403,-0.9551
09-Sep-2020 10:51:11.639,-0.2341, 0.7592,-0.0599,-0.4150,-0.3789,-2.6387, 1.1080,-1.1605,-0.9655
09-Sep-2020 10:51:11.649,-0.0635, 0.7417,-0.0259,-0.1773,-0.2688,-3.0678, 1.0847,-1.1855,-0.9870
09-Sep-2020 10:51:11.659, 0.2838, 0.6993, 0.0484, 0.0978, 0.2777,-3.2861, 1.0483,-1.2129,-1.0234
09-Sep-2020 10:51:11.669, 0.7904, 0.8470, 0.0988, 0.1324, 1.1218,-3.1033, 1.0024,-1.2401,-1.0753
09-Sep-2020 10:51:11.679, 0.9939, 1.0302,-0.1536,-0.2372, 1.8848,-2.4101, 0.9593,-1.2648,-1.1326
09-Sep-2020 10:51:11.689, 1.0338, 0.9076,-0.4447,-0.9255, 1.4369,-1.3832, 0.9388,-1.2855,-1.1727
09-Sep-2020 10:51:11.699, 0.8635, 0.7735,-0.6407,-1.0498, 0.7936,-0.7477, 0.9492,-1.3020,-1.1766
09-Sep-2020 10:51:11.708, 0.7353, 0.8128,-0.6296,-0.6384, 0.5270,-0.4506, 0.9717,-1.3139,-1.1617
09-Sep-2020 10:51:11.718, 0.6063, 0.8776,-0.3685,-0.3535, 0.3159,-0.2396, 0.9880,-1.3212,-1.1503
09-Sep-2020 10:51:11.729, 0.3947, 0.7856,-0.1874,-0.3193,-0.0215,-0.1455, 0.9980,-1.3252,-1.1432
09-Sep-2020 10:51:11.738, 0.4012, 0.7767,-0.0907,-0.4505,-0.5267,-0.0783, 1.0056,-1.3282,-1.1349
09-Sep-2020 10:51:11.748, 0.4138, 0.8480, 0.0395,-0.6118,-0.8905,-0.0184, 1.0142,-1.3311,-1.1207
09-Sep-2020 10:51:11.758, 0.3903, 0.9061, 0.1329,-0.6939,-1.0479, 0.0254, 1.0263,-1.3343,-1.0993
09-Sep-2020 10:51:11.768, 0.3818, 1.0130, 0.0987,-0.5969,-1.2017, 0.0029, 1.0408,-1.3376,-1.0736
09-Sep-2020 10:51:11.778, 0.3596, 1.0608,-0.0131,-0.3422,-1.4184,-0.0406, 1.0503,-1.3404,-1.0515
09-Sep-2020 10:51:11.788, 0.3528, 1.0341,-0.0224,-0.1006,-1.7651,-0.0419, 1.0479,-1.3424,-1.0394
09-Sep-2020 10:51:11.798, 0.3394, 0.9723, 0.0986,-0.0175,-1.7196,-0.0226, 1.0337,-1.3432,-1.0361
09-Sep-2020 10:51:11.808, 0.2422, 0.9185, 0.2077,-0.1933,-0.9935,-0.0224, 1.0178,-1.3436,-1.0354
09-Sep-2020 10:51:11.818, 0.2291, 0.7994, 0.2301,-0.4499,-0.1644, 0.2193, 1.0152,-1.3446,-1.0280
09-Sep-2020 10:51:11.828, 0.2448, 0.6695, 0.0329,-0.4746, 0.2290, 0.5891, 1.0344,-1.3448,-1.0063
09-Sep-2020 10:51:11.838, 0.1641, 0.6556,-0.1712,-0.2849, 0.2437, 0.8154, 1.0661,-1.3420,-0.9759
09-Sep-2020 10:51:11.848, 0.0267, 0.7306,-0.2577,-0.0417, 0.2074, 0.8280, 1.0948,-1.3362,-0.9488
09-Sep-2020 10:51:11.858,-0.0032, 0.7832,-0.2347, 0.0462, 0.1807, 0.7462, 1.1140,-1.3290,-0.9312
09-Sep-2020 10:51:11.868, 0.0186, 0.7707,-0.0915,-0.0531, 0.1942, 0.6487, 1.1275,-1.3221,-0.9192
09-Sep-2020 10:51:11.878, 0.0216, 0.6617, 0.0429,-0.2203, 0.2707, 0.5231, 1.1420,-1.3165,-0.9062
09-Sep-2020 10:51:11.887, 0.0347, 0.5172, 0.0718,-0.2698, 0.3728, 0.3609, 1.1601,-1.3125,-0.8903
09-Sep-2020 10:51:11.897, 0.0433, 0.4238, 0.0012,-0.1812, 0.3230, 0.1143, 1.1779,-1.3102,-0.8756
09-Sep-2020 10:51:11.908, 0.0446, 0.3857,-0.0714,-0.0560, 0.0433,-0.2558, 1.1885,-1.3098,-0.8678
09-Sep-2020 10:51:11.917, 0.0426, 0.3807,-0.1217, 0.0116,-0.3832,-0.7357, 1.1873,-1.3124,-0.8694
09-Sep-2020 10:51:11.927, 0.0331, 0.3748,-0.1741, 0.0209,-0.8774,-1.2768, 1.1724,-1.3191,-0.8809
09-Sep-2020 10:51:11.937, 0.0281, 0.3051,-0.1501,-0.1150,-1.3363,-1.7593, 1.1431,-1.3306,-0.9021
09-Sep-2020 10:51:11.948, 0.0519, 0.2906,-0.5397, 0.2005,-2.4347,-2.0983, 1.1025,-1.3467,-0.9302
09-Sep-2020 10:51:11.957, 0.0273, 0.1326,-0.0076,-0.1683,-2.3292,-2.1987, 1.0320,-1.3645,-0.9799
09-Sep-2020 10:51:11.967, 0.0091, 0.0438, 0.1843,-0.5896,-2.0379,-2.1728, 0.9563,-1.3836,-1.0335
09-Sep-2020 10:51:11.977, 0.0074, 0.0558, 0.0085,-0.7312,-1.8622,-2.1463, 0.8882,-1.4042,-1.0819
09-Sep-2020 10:51:11.987,-0.0000, 0.1636, 0.1281,-0.9151,-1.3991,-2.1034, 0.8153,-1.4250,-1.1371
09-Sep-2020 10:51:11.997,-0.0254, 0.8799, 1.1508,-2.4881,-0.2705,-2.1001, 0.7440,-1.4468,-1.1953
09-Sep-2020 10:51:12.007,-0.5083, 2.4349, 0.3190,-3.5109,-0.0601,-2.6713, 0.7450,-1.4784,-1.1914
09-Sep-2020 10:51:12.017,-0.2011, 4.4638,-0.4581,-3.1228,-0.7394,-2.9951, 0.8099,-1.5212,-1.1237
09-Sep-2020 10:51:12.029, 0.5945, 5.7034, 0.1570,-1.1966, 1.7507,-1.3761, 1.0449,-1.5617,-0.8843
09-Sep-2020 10:51:12.038,-0.0862, 4.8352,-0.5437, 0.3953, 1.1719,-0.2575,-2.4629,-1.5611, 1.8771
09-Sep-2020 10:51:12.048,-0.1299, 2.3551,-0.0596, 1.0243, 1.5025, 0.0961,-1.9908,-1.5606, 2.3369
09-Sep-2020 10:51:12.057,-0.0842, 1.0619,-0.1169, 1.1283, 1.4907, 0.1901,-0.9583,-1.5605,-2.9286
09-Sep-2020 10:51:12.067,-0.1095, 0.5139,-0.0332, 0.8330, 1.2836, 0.1122,-0.3567,-1.5526,-2.3415
09-Sep-2020 10:51:12.077,-0.0977, 0.2499, 0.1608, 0.2735, 1.0816,-0.0472,-0.1921,-1.5450,-2.1898
09-Sep-2020 10:51:12.087,-0.0635, 0.1823, 0.2836,-0.2708, 0.7226,-0.2363,-0.1777,-1.5423,-2.1859
09-Sep-2020 10:51:12.097,-0.0226, 0.3135, 0.2013,-0.3999, 0.2935,-0.2779,-0.2663,-1.5441,-2.2816
09-Sep-2020 10:51:12.107,-0.0244, 0.5239, 0.0680,-0.2428,-0.0214,-0.2098,-0.4100,-1.5468,-2.4284
09-Sep-2020 10:51:12.117,-0.0461, 0.7732,-0.0197,-0.1010,-0.3608,-0.2139,-0.5357,-1.5480,-2.5539
09-Sep-2020 10:51:12.126,-0.0363, 0.9800, 0.0068,-0.1022,-0.5169,-0.2158,-0.6389,-1.5477,-2.6536
09-Sep-2020 10:51:12.136,-0.0571, 1.1658, 0.0331,-0.2193,-0.5908,-0.2157,-0.7412,-1.5472,-2.7508
09-Sep-2020 10:51:12.146,-0.0964, 1.2494, 0.0323,-0.3604,-0.6251,-0.2330,-0.8744,-1.5472,-2.8783
09-Sep-2020 10:51:12.156,-0.1100, 1.1794, 0.0046,-0.4412,-0.6586,-0.2526,-1.0582,-1.5474,-3.0558
09-Sep-2020 10:51:12.167,-0.0610, 0.9816,-0.0181,-0.4037,-0.5618,-0.2203,-1.2705,-1.5469, 3.0215
09-Sep-2020 10:51:12.176,-0.0381, 0.8703,-0.0580,-0.2534,-0.4371,-0.1681,-1.4496,-1.5456, 2.8479
09-Sep-2020 10:51:12.186,-0.0347, 0.8464,-0.1096,-0.0092,-0.3602,-0.1146,-1.5525,-1.5442, 2.7493
09-Sep-2020 10:51:12.196,-0.0388, 0.8855,-0.1009, 0.0960,-0.3513,-0.1191,-1.5628,-1.5431, 2.7427
09-Sep-2020 10:51:12.206,-0.0604, 0.9217,-0.0615, 0.2168,-0.0934,-0.1598,-1.5295,-1.5419, 2.7793
09-Sep-2020 10:51:12.216,-0.0686, 0.9420,-0.0543, 0.3688, 0.2020,-0.1938,-1.4606,-1.5402, 2.8491
09-Sep-2020 10:51:12.226,-0.0628, 0.9606,-0.0255, 0.4187, 0.4368,-0.2472,-1.3549,-1.5378, 2.9529
09-Sep-2020 10:51:12.236,-0.0641, 0.9735, 0.0015, 0.3454, 0.5575,-0.3319,-1.2547,-1.5344, 3.0490
09-Sep-2020 10:51:12.246,-0.0726, 1.0031, 0.0238, 0.2480, 0.6181,-0.4236,-1.1937,-1.5302, 3.1045
09-Sep-2020 10:51:12.256,-0.0850, 1.0392, 0.0378, 0.2127, 0.6629,-0.4996,-1.1693,-1.5254, 3.1227
09-Sep-2020 10:51:12.266,-0.0988, 1.0579, 0.0513, 0.2269, 0.6896,-0.5320,-1.1610,-1.5200, 3.1244
09-Sep-2020 10:51:12.276,-0.1202, 1.0656, 0.0600, 0.2506, 0.6352,-0.5297,-1.1537,-1.5144, 3.1249
09-Sep-2020 10:51:12.286,-0.1527, 1.0487, 0.0597, 0.2406, 0.4550,-0.5203,-1.1445,-1.5086, 3.1279
09-Sep-2020 10:51:12.296,-0.1937, 1.0275, 0.0591, 0.1869, 0.2124,-0.5204,-1.1391,-1.5030, 3.1288
09-Sep-2020 10:51:12.305,-0.2271, 1.0141, 0.0591, 0.1118,-0.0401,-0.5176,-1.1428,-1.4975, 3.1230
09-Sep-2020 10:51:12.315,-0.2468, 1.0005, 0.0629, 0.0418,-0.2724,-0.5132,-1.1568,-1.4924, 3.1094
09-Sep-2020 10:51:12.325,-0.2537, 0.9844, 0.0634,-0.0217,-0.4639,-0.4878,-1.1787,-1.4876, 3.0901
09-Sep-2020 10:51:12.335,-0.2589, 0.9696, 0.0529,-0.0470,-0.5980,-0.4298,-1.2056,-1.4833, 3.0678
09-Sep-2020 10:51:12.346,-0.2502, 0.9572, 0.0360,-0.0321,-0.6718,-0.3313,-1.2318,-1.4795, 3.0474
09-Sep-2020 10:51:12.355,-0.2380, 0.9560, 0.0266,-0.0037,-0.7205,-0.1994,-1.2524,-1.4766, 3.0334
09-Sep-2020 10:51:12.366,-0.2302, 0.9635, 0.0128, 0.0205,-0.7915,-0.0588,-1.2657,-1.4748, 3.0273
09-Sep-2020 10:51:12.375,-0.2203, 0.9686, 0.0085, 0.0106,-0.8745, 0.0491,-1.2730,-1.4742, 3.0278
09-Sep-2020 10:51:12.385,-0.2009, 0.9765, 0.0053,-0.0264,-0.9834, 0.0563,-1.2792,-1.4746, 3.0304
09-Sep-2020 10:51:12.395,-0.1560, 0.9723, 0.0076,-0.0665,-1.0710, 0.0343,-1.2895,-1.4753, 3.0299
09-Sep-2020 10:51:12.405,-0.1108, 0.9785, 0.0104,-0.0858,-1.0817, 0.0443,-1.3050,-1.4759, 3.0250
09-Sep-2020 10:51:12.415,-0.0905, 0.9942, 0.0046,-0.1013,-1.0300, 0.0603,-1.3226,-1.4766, 3.0181
09-Sep-2020 10:51:12.425,-0.0936, 1.0022,-0.0128,-0.0993,-0.9738, 0.0322,-1.3411,-1.4774, 3.0098
09-Sep-2020 10:51:12.435,-0.0970, 1.0037,-0.0402,-0.0714,-0.9308,-0.0197,-1.3597,-1.4780, 3.0009
09-Sep-2020 10:51:12.445,-0.0994, 1.0000,-0.0572,-0.0198,-0.9139,-0.0470,-1.3761,-1.4780, 2.9937
09-Sep-2020 10:51:12.455,-0.1048, 0.9805,-0.0641, 0.0486,-0.9210,-0.0508,-1.3877,-1.4777, 2.9913
09-Sep-2020 10:51:12.465,-0.0959, 0.9398,-0.0481, 0.1230,-0.8939,-0.0431,-1.3921,-1.4772, 2.9961
09-Sep-2020 10:51:12.475,-0.0813, 0.9673,-0.0111, 0.1254,-0.8662,-0.0254,-1.3891,-1.4766, 3.0080
09-Sep-2020 10:51:12.485,-0.0673, 1.0245, 0.0280, 0.0439,-0.8307,-0.0171,-1.3855,-1.4762, 3.0203
09-Sep-2020 10:51:12.494,-0.0585, 1.0110, 0.0414,-0.0431,-0.7279,-0.0450,-1.3891,-1.4760, 3.0250
09-Sep-2020 10:51:12.505,-0.0483, 0.9787, 0.0291,-0.0975,-0.5652,-0.0850,-1.4009,-1.4757, 3.0204
09-Sep-2020 10:51:12.515,-0.0465, 0.9951,-0.0074,-0.0796,-0.4015,-0.1402,-1.4170,-1.4751, 3.0098
09-Sep-2020 10:51:12.525,-0.0413, 0.9976,-0.0215,-0.0304,-0.2298,-0.1900,-1.4307,-1.4739, 3.0001
09-Sep-2020 10:51:12.534,-0.0368, 0.9839,-0.0452, 0.0171,-0.1201,-0.2256,-1.4383,-1.4721, 2.9947
09-Sep-2020 10:51:12.544,-0.0368, 0.9684,-0.0564, 0.0561,-0.0621,-0.2343,-1.4403,-1.4700, 2.9940
09-Sep-2020 10:51:12.554,-0.0487, 0.9606,-0.0526, 0.0704,-0.0127,-0.2315,-1.4383,-1.4677, 2.9967
09-Sep-2020 10:51:12.565,-0.0609, 0.9607,-0.0451, 0.0975, 0.0208,-0.2304,-1.4343,-1.4654, 3.0009
09-Sep-2020 10:51:12.574,-0.0783, 0.9577,-0.0199, 0.1353, 0.0380,-0.2413,-1.4275,-1.4631, 3.0075
09-Sep-2020 10:51:12.584,-0.0914, 0.9450, 0.0146, 0.1248, 0.0531,-0.2532,-1.4181,-1.4606, 3.0167
09-Sep-2020 10:51:12.594,-0.0990, 0.9456, 0.0491, 0.0198, 0.1253,-0.2546,-1.4102,-1.4580, 3.0240
09-Sep-2020 10:51:12.604,-0.1022, 1.0040, 0.0354,-0.1092, 0.2838,-0.2498,-1.4107,-1.4555, 3.0222
09-Sep-2020 10:51:12.614,-0.0999, 1.0727, 0.0064,-0.1608, 0.5078,-0.2581,-1.4195,-1.4533, 3.0104
09-Sep-2020 10:51:12.624,-0.0839, 1.1030,-0.0155,-0.1079, 0.7210,-0.2581,-1.4299,-1.4510, 2.9949
09-Sep-2020 10:51:12.634,-0.0572, 1.0946,-0.0131,-0.0350, 0.8227,-0.2397,-1.4340,-1.4487, 2.9837
09-Sep-2020 10:51:12.644,-0.0430, 1.0472, 0.0149,-0.0029, 0.7815,-0.1810,-1.4312,-1.4465, 2.9783
09-Sep-2020 10:51:12.654,-0.0600, 1.0084, 0.0476,-0.0281, 0.6259,-0.1201,-1.4257,-1.4448, 2.9761
09-Sep-2020 10:51:12.665,-0.0998, 0.9859, 0.0532,-0.0661, 0.4017,-0.0711,-1.4228,-1.4437, 2.9728
09-Sep-2020 10:51:12.674,-0.1503, 0.9840, 0.0407,-0.0840, 0.1785,-0.0474,-1.4243,-1.4431, 2.9673
09-Sep-2020 10:51:12.684,-0.1933, 0.9880, 0.0148,-0.0634,-0.0338,-0.0518,-1.4291,-1.4428, 2.9607
09-Sep-2020 10:51:12.694,-0.2064, 1.0141,-0.0002,-0.0321,-0.2162,-0.0467,-1.4344,-1.4425, 2.9556
09-Sep-2020 10:51:12.704,-0.2043, 1.0314, 0.0007,-0.0035,-0.3373, 0.0150,-1.4390,-1.4422, 2.9531
09-Sep-2020 10:51:12.714,-0.2024, 0.9854, 0.0198,-0.0297,-0.4464, 0.0521,-1.4424,-1.4424, 2.9531
09-Sep-2020 10:51:12.724,-0.2097, 0.9398, 0.0304,-0.0718,-0.4615, 0.0089,-1.4482,-1.4429, 2.9517
09-Sep-2020 10:51:12.734,-0.1961, 0.9971, 0.0017, 0.0411,-0.4111,-0.0507,-1.4564,-1.4431, 2.9480
09-Sep-2020 10:51:12.744,-0.1624, 0.9726, 0.0159, 0.0641,-0.3628,-0.0799,-1.4581,-1.4427, 2.9504
09-Sep-2020 10:51:12.754,-0.1486, 0.9401, 0.0217,-0.0026,-0.3316,-0.0616,-1.4576,-1.4420, 2.9545
09-Sep-2020 10:51:12.766,-0.1631, 0.9407, 0.0149,-0.1064,-0.3165,-0.0469,-1.4617,-1.4414, 2.9537
09-Sep-2020 10:51:12.773,-0.1731, 0.9615, 0.0124,-0.2183,-0.3135,-0.0290,-1.4730,-1.4411, 2.9456
09-Sep-2020 10:51:12.783,-0.1767, 0.9874, 0.0096,-0.2475,-0.2260,-0.0399,-1.4921,-1.4411, 2.9294
09-Sep-2020 10:51:12.793,-0.1604, 1.0040,-0.0242,-0.0741,-0.1549,-0.1132,-1.5120,-1.4409, 2.9117
09-Sep-2020 10:51:12.803,-0.1195, 0.9870,-0.0166, 0.1095,-0.1526,-0.1415,-1.5194,-1.4399, 2.9058
09-Sep-2020 10:51:12.813,-0.0890, 0.9823, 0.0229, 0.1659,-0.2018,-0.1286,-1.5137,-1.4385, 2.9131
09-Sep-2020 10:51:12.823,-0.0745, 0.9839, 0.0444, 0.1272,-0.2656,-0.0986,-1.5041,-1.4372, 2.9249
09-Sep-2020 10:51:12.833,-0.0815, 0.9866, 0.0444, 0.0650,-0.3000,-0.0577,-1.4976,-1.4362, 2.9341
09-Sep-2020 10:51:12.843,-0.0969, 0.9968, 0.0293, 0.0306,-0.2948,-0.0410,-1.4958,-1.4357, 2.9389
09-Sep-2020 10:51:12.853,-0.1028, 1.0023, 0.0088, 0.0237,-0.2709,-0.0373,-1.4963,-1.4353, 2.9414
09-Sep-2020 10:51:12.863,-0.1044, 1.0054,-0.0054, 0.0276,-0.2481,-0.0282,-1.4972,-1.4350, 2.9432
09-Sep-2020 10:51:12.873,-0.1087, 1.0043,-0.0090, 0.0417,-0.2224,-0.0286,-1.4975,-1.4347, 2.9454
09-Sep-2020 10:51:12.883,-0.1103, 0.9999,-0.0042, 0.0485,-0.1829,-0.0311,-1.4967,-1.4345, 2.9484
09-Sep-2020 10:51:12.893,-0.1086, 0.9969,-0.0083, 0.0688,-0.1778,-0.0117,-1.4949,-1.4342, 2.9521
09-Sep-2020 10:51:12.903,-0.1112, 0.9944, 0.0020, 0.0956,-0.1571,-0.0233,-1.4914,-1.4341, 2.9573
09-Sep-2020 10:51:12.913,-0.1107, 0.9780, 0.0070, 0.0887,-0.1343,-0.0173,-1.4862,-1.4339, 2.9642
09-Sep-2020 10:51:12.923,-0.1166, 0.9659,-0.0001, 0.0718,-0.1141,-0.0049,-1.4812,-1.4337, 2.9706
09-Sep-2020 10:51:12.933,-0.1288, 0.9608, 0.0002, 0.0594,-0.0802,-0.0065,-1.4778,-1.4338, 2.9752
09-Sep-2020 10:51:12.942,-0.1395, 0.9580,-0.0017, 0.0698,-0.0307,-0.0179,-1.4745,-1.4338, 2.9794
09-Sep-2020 10:51:12.952,-0.1525, 0.9613, 0.0033, 0.0819, 0.0177,-0.0299,-1.4698,-1.4338, 2.9845
09-Sep-2020 10:51:12.963,-0.1636, 0.9718, 0.0128, 0.0737, 0.0563,-0.0411,-1.4637,-1.4335, 2.9904
09-Sep-2020 10:51:12.972,-0.1760, 0.9821, 0.0252, 0.0531, 0.0814,-0.0526,-1.4580,-1.4332, 2.9957
09-Sep-2020 10:51:12.982,-0.1813, 0.9972, 0.0330, 0.0225, 0.0896,-0.0592,-1.4536,-1.4328, 2.9993
09-Sep-2020 10:51:12.992,-0.1881, 1.0035, 0.0342,-0.0016, 0.0819,-0.0670,-1.4513,-1.4323, 3.0007
09-Sep-2020 10:51:13.002,-0.1928, 1.0057, 0.0334,-0.0219, 0.0505,-0.0762,-1.4513,-1.4318, 3.0000
09-Sep-2020 10:51:13.013,-0.1922, 1.0053, 0.0308,-0.0285,-0.0004,-0.0883,-1.4529,-1.4312, 2.9979
09-Sep-2020 10:51:13.022,-0.1758, 0.9989, 0.0329,-0.0313,-0.0428,-0.0925,-1.4555,-1.4305, 2.9952
09-Sep-2020 10:51:13.032,-0.1654, 0.9946, 0.0328,-0.0443,-0.0561,-0.0985,-1.4588,-1.4297, 2.9923
09-Sep-2020 10:51:13.042,-0.1685, 0.9659, 0.0103,-0.0209,-0.1192,-0.1313,-1.4631,-1.4288, 2.9885
09-Sep-2020 10:51:13.052,-0.1714, 0.9712,-0.0105, 0.0701,-0.2541,-0.1675,-1.4664,-1.4275, 2.9864
09-Sep-2020 10:51:13.063,-0.1299, 0.9946, 0.0223, 0.0803,-0.2888,-0.1034,-1.4659,-1.4259, 2.9895
09-Sep-2020 10:51:13.072,-0.1222, 0.9949, 0.0309, 0.0187,-0.2905,-0.0559,-1.4648,-1.4247, 2.9935
09-Sep-2020 10:51:13.083,-0.1228, 0.9967, 0.0169,-0.0240,-0.2260,-0.0545,-1.4673,-1.4241, 2.9940
09-Sep-2020 10:51:13.092,-0.1137, 0.9883,-0.0102,-0.0069,-0.1416,-0.0390,-1.4717,-1.4236, 2.9918
09-Sep-2020 10:51:13.102,-0.1120, 0.9827,-0.0116, 0.0177,-0.0501,-0.0136,-1.4743,-1.4232, 2.9906
09-Sep-2020 10:51:13.112,-0.1192, 0.9803,-0.0070, 0.0291,-0.0053,-0.0021,-1.4743,-1.4230, 2.9912
09-Sep-2020 10:51:13.122,-0.1303, 0.9740,-0.0030, 0.0310,-0.0029, 0.0079,-1.4729,-1.4230, 2.9926
09-Sep-2020 10:51:13.131,-0.1387, 0.9729, 0.0008, 0.0311,-0.0360, 0.0257,-1.4712,-1.4231, 2.9944
09-Sep-2020 10:51:13.141,-0.1473, 0.9792, 0.0077, 0.0349,-0.0726, 0.0481,-1.4692,-1.4233, 2.9969
09-Sep-2020 10:51:13.151,-0.1519, 0.9891, 0.0165, 0.0394,-0.0870, 0.0667,-1.4671,-1.4238, 2.9996
09-Sep-2020 10:51:13.162,-0.1553, 0.9890, 0.0168, 0.0487,-0.0837, 0.0815,-1.4652,-1.4245, 3.0025
09-Sep-2020 10:51:13.172,-0.1587, 0.9870, 0.0118, 0.0577,-0.0783, 0.0906,-1.4625,-1.4254, 3.0061
09-Sep-2020 10:51:13.181,-0.1585, 0.9840, 0.0087, 0.0649,-0.0866, 0.0888,-1.4587,-1.4263, 3.0107
09-Sep-2020 10:51:13.191,-0.1562, 0.9842, 0.0084, 0.0664,-0.0909, 0.0938,-1.4541,-1.4273, 3.0163
09-Sep-2020 10:51:13.201,-0.1560, 0.9859, 0.0120, 0.0626,-0.0810, 0.0915,-1.4493,-1.4283, 3.0220
09-Sep-2020 10:51:13.211,-0.1580, 0.9906, 0.0132, 0.0533,-0.0584, 0.0838,-1.4448,-1.4292, 3.0274
09-Sep-2020 10:51:13.221,-0.1617, 0.9941, 0.0131, 0.0408,-0.0472, 0.0786,-1.4408,-1.4301, 3.0320
09-Sep-2020 10:51:13.231,-0.1652, 0.9958, 0.0155, 0.0303,-0.0448, 0.0717,-1.4376,-1.4308, 3.0358
09-Sep-2020 10:51:13.241,-0.1693, 0.9957, 0.0181, 0.0218,-0.0648, 0.0737,-1.4353,-1.4316, 3.0386
09-Sep-2020 10:51:13.251,-0.1710, 0.9970, 0.0150, 0.0193,-0.0936, 0.0750,-1.4339,-1.4323, 3.0407
09-Sep-2020 10:51:13.261,-0.1707, 0.9936, 0.0092, 0.0193,-0.1459, 0.0778,-1.4330,-1.4330, 3.0426
09-Sep-2020 10:51:13.271,-0.1630, 0.9876, 0.0014, 0.0217,-0.2016, 0.0836,-1.4325,-1.4338, 3.0446
09-Sep-2020 10:51:13.281,-0.1530, 0.9833,-0.0085, 0.0248,-0.2471, 0.0966,-1.4323,-1.4346, 3.0469
09-Sep-2020 10:51:13.291,-0.1460, 0.9791,-0.0157, 0.0335,-0.2707, 0.1067,-1.4321,-1.4355, 3.0495
09-Sep-2020 10:51:13.301,-0.1414, 0.9782,-0.0139, 0.0379,-0.2775, 0.1121,-1.4316,-1.4366, 3.0527
09-Sep-2020 10:51:13.311,-0.1411, 0.9807,-0.0076, 0.0380,-0.2683, 0.1159,-1.4308,-1.4376, 3.0564
09-Sep-2020 10:51:13.321,-0.1483, 0.9853, 0.0005, 0.0332,-0.2486, 0.1110,-1.4298,-1.4387, 3.0601
09-Sep-2020 10:51:13.331,-0.1570, 0.9881, 0.0056, 0.0246,-0.2390, 0.1077,-1.4290,-1.4397, 3.0635
09-Sep-2020 10:51:13.341,-0.1629, 0.9899, 0.0072, 0.0183,-0.2400, 0.0959,-1.4287,-1.4407, 3.0661
09-Sep-2020 10:51:13.350,-0.1639, 0.9895, 0.0057, 0.0180,-0.2468, 0.0910,-1.4289,-1.4416, 3.0684
09-Sep-2020 10:51:13.361,-0.1643, 0.9893, 0.0036, 0.0165,-0.2499, 0.0813,-1.4291,-1.4425, 3.0707
09-Sep-2020 10:51:13.370,-0.1611, 0.9886, 0.0026, 0.0175,-0.2571, 0.0727,-1.4294,-1.4433, 3.0729
09-Sep-2020 10:51:13.380,-0.1577, 0.9861, 0.0042, 0.0169,-0.2594, 0.0573,-1.4295,-1.4439, 3.0754
09-Sep-2020 10:51:13.390,-0.1539, 0.9870, 0.0060, 0.0090,-0.2581, 0.0433,-1.4299,-1.4445, 3.0776
09-Sep-2020 10:51:13.401,-0.1524, 0.9891, 0.0096,-0.0014,-0.2381, 0.0276,-1.4310,-1.4449, 3.0790
09-Sep-2020 10:51:13.410,-0.1476, 0.9921, 0.0071,-0.0074,-0.2310, 0.0166,-1.4329,-1.4452, 3.0795
09-Sep-2020 10:51:13.420,-0.1406, 0.9946, 0.0045,-0.0144,-0.2217, 0.0021,-1.4357,-1.4454, 3.0790
09-Sep-2020 10:51:13.430,-0.1341, 0.9954, 0.0034,-0.0152,-0.1953,-0.0167,-1.4386,-1.4455, 3.0784
09-Sep-2020 10:51:13.440,-0.1228, 0.9910, 0.0012,-0.0220,-0.1727,-0.0249,-1.4416,-1.4454, 3.0773
09-Sep-2020 10:51:13.450,-0.1136, 0.9861,-0.0011,-0.0279,-0.1509,-0.0325,-1.4450,-1.4453, 3.0757
09-Sep-2020 10:51:13.460,-0.1070, 0.9824,-0.0023,-0.0327,-0.1262,-0.0378,-1.4490,-1.4450, 3.0731
09-Sep-2020 10:51:13.470,-0.0977, 0.9789,-0.0059,-0.0369,-0.1067,-0.0404,-1.4533,-1.4447, 3.0701
09-Sep-2020 10:51:13.480,-0.0882, 0.9815,-0.0089,-0.0359,-0.0939,-0.0496,-1.4575,-1.4443, 3.0669
09-Sep-2020 10:51:13.490,-0.0810, 0.9854,-0.0083,-0.0387,-0.0714,-0.0549,-1.4617,-1.4438, 3.0636
09-Sep-2020 10:51:13.500,-0.0721, 0.9883,-0.0139,-0.0402,-0.0553,-0.0493,-1.4659,-1.4434, 3.0601
09-Sep-2020 10:51:13.510,-0.0668, 0.9921,-0.0156,-0.0363,-0.0376,-0.0400,-1.4699,-1.4429, 3.0567
09-Sep-2020 10:51:13.520,-0.0603, 0.9932,-0.0161,-0.0258,-0.0035,-0.0312,-1.4732,-1.4426, 3.0538
09-Sep-2020 10:51:13.530,-0.0538, 0.9953,-0.0186,-0.0132, 0.0371,-0.0197,-1.4752,-1.4424, 3.0518
09-Sep-2020 10:51:13.540,-0.0516, 0.9991,-0.0176,-0.0051, 0.0812,-0.0167,-1.4758,-1.4423, 3.0508
09-Sep-2020 10:51:13.550,-0.0528, 0.9974,-0.0176, 0.0064, 0.1060,-0.0137,-1.4753,-1.4422, 3.0505
09-Sep-2020 10:51:13.560,-0.0544, 0.9948,-0.0158, 0.0099, 0.1181,-0.0108,-1.4737,-1.4422, 3.0511
09-Sep-2020 10:51:13.569,-0.0537, 0.9925,-0.0146, 0.0055, 0.1271,-0.0002,-1.4716,-1.4423, 3.0521
09-Sep-2020 10:51:13.580,-0.0535, 0.9898,-0.0104,-0.0019, 0.1377, 0.0175,-1.4695,-1.4424, 3.0529
09-Sep-2020 10:51:13.590,-0.0538, 0.9927,-0.0105,-0.0098, 0.1447, 0.0365,-1.4677,-1.4428, 3.0533
09-Sep-2020 10:51:13.599,-0.0587, 0.9917,-0.0110,-0.0060, 0.1508, 0.0562,-1.4660,-1.4434, 3.0536
09-Sep-2020 10:51:13.609,-0.0674, 0.9947,-0.0112, 0.0041, 0.1472, 0.0748,-1.4639,-1.4442, 3.0542
09-Sep-2020 10:51:13.619,-0.0737, 0.9979,-0.0123, 0.0114, 0.1399, 0.0891,-1.4609,-1.4451, 3.0558
09-Sep-2020 10:51:13.629,-0.0808, 0.9973,-0.0088, 0.0133, 0.1275, 0.1065,-1.4573,-1.4462, 3.0581
09-Sep-2020 10:51:13.639,-0.0909, 0.9955,-0.0070, 0.0136, 0.1095, 0.1156,-1.4534,-1.4475, 3.0607
09-Sep-2020 10:51:13.649,-0.1013, 0.9966,-0.0042, 0.0136, 0.0984, 0.1196,-1.4494,-1.4488, 3.0637
09-Sep-2020 10:51:13.659,-0.1055, 0.9888,-0.0002, 0.0155, 0.0916, 0.1371,-1.4454,-1.4502, 3.0668
09-Sep-2020 10:51:13.669,-0.1144, 0.9892, 0.0019, 0.0213, 0.0922, 0.1417,-1.4410,-1.4518, 3.0702
09-Sep-2020 10:51:13.679,-0.1195, 0.9891, 0.0055, 0.0295, 0.0998, 0.1464,-1.4362,-1.4534, 3.0741
09-Sep-2020 10:51:13.689,-0.1177, 0.9907, 0.0100, 0.0336, 0.1222, 0.1391,-1.4305,-1.4550, 3.0789
09-Sep-2020 10:51:13.699,-0.1176, 0.9874, 0.0125, 0.0385, 0.1444, 0.1364,-1.4240,-1.4565, 3.0842
09-Sep-2020 10:51:13.709,-0.1183, 0.9858, 0.0164, 0.0369, 0.1580, 0.1441,-1.4169,-1.4579, 3.0899
09-Sep-2020 10:51:13.719,-0.1224, 0.9839, 0.0241, 0.0246, 0.1760, 0.1463,-1.4098,-1.4594, 3.0955
09-Sep-2020 10:51:13.729,-0.1283, 0.9880, 0.0283, 0.0061, 0.1774, 0.1437,-1.4034,-1.4609, 3.1001
09-Sep-2020 10:51:13.739,-0.1266, 0.9966, 0.0312,-0.0047, 0.1771, 0.1365,-1.3985,-1.4624, 3.1033
09-Sep-2020 10:51:13.748,-0.1301, 1.0033, 0.0327,-0.0033, 0.1836, 0.1393,-1.3946,-1.4639, 3.1055
09-Sep-2020 10:51:13.759,-0.1361, 1.0093, 0.0265, 0.0012, 0.1687, 0.1374,-1.3907,-1.4653, 3.1076
09-Sep-2020 10:51:13.768,-0.1403, 1.0087, 0.0223,-0.0020, 0.1403, 0.1363,-1.3866,-1.4667, 3.1100
09-Sep-2020 10:51:13.778,-0.1422, 1.0043, 0.0238,-0.0096, 0.0957, 0.1257,-1.3831,-1.4681, 3.1121
09-Sep-2020 10:51:13.788,-0.1423, 0.9950, 0.0304,-0.0208, 0.0696, 0.1291,-1.3810,-1.4694, 3.1133
09-Sep-2020 10:51:13.798,-0.1411, 0.9915, 0.0344,-0.0258, 0.0495, 0.1302,-1.3801,-1.4707, 3.1136
09-Sep-2020 10:51:13.808,-0.1349, 0.9966, 0.0371,-0.0223, 0.0329, 0.1270,-1.3800,-1.4720, 3.1131
09-Sep-2020 10:51:13.819,-0.1223, 1.0008, 0.0409,-0.0231, 0.0124, 0.1294,-1.3801,-1.4734, 3.1128
09-Sep-2020 10:51:13.828,-0.1120, 1.0006, 0.0445,-0.0268,-0.0095, 0.1319,-1.3805,-1.4747, 3.1123
09-Sep-2020 10:51:13.838,-0.1062, 0.9993, 0.0409,-0.0362,-0.0227, 0.1399,-1.3815,-1.4760, 3.1113
09-Sep-2020 10:51:13.848,-0.1078, 0.9987, 0.0307,-0.0365,-0.0347, 0.1447,-1.3834,-1.4774, 3.1097
09-Sep-2020 10:51:13.858,-0.1163, 1.0013, 0.0210,-0.0290,-0.0265, 0.1423,-1.3852,-1.4789, 3.1083
09-Sep-2020 10:51:13.868,-0.1296, 1.0007, 0.0130,-0.0153,-0.0044, 0.1340,-1.3862,-1.4803, 3.1075
09-Sep-2020 10:51:13.878,-0.1446, 0.9955, 0.0074,-0.0055, 0.0198, 0.1162,-1.3859,-1.4816, 3.1079
09-Sep-2020 10:51:13.888,-0.1602, 0.9902, 0.0072,-0.0006, 0.0284, 0.0899,-1.3848,-1.4827, 3.1088
09-Sep-2020 10:51:13.898,-0.1674, 0.9825, 0.0137,-0.0099, 0.0160, 0.0657,-1.3837,-1.4836, 3.1096
09-Sep-2020 10:51:13.908,-0.1653, 0.9704, 0.0256,-0.0186,-0.0239, 0.0479,-1.3841,-1.4842, 3.1091
09-Sep-2020 10:51:13.918,-0.1562, 0.9619, 0.0316,-0.0304,-0.0780, 0.0414,-1.3864,-1.4848, 3.1070
09-Sep-2020 10:51:13.928,-0.1418, 0.9618, 0.0329,-0.0303,-0.1228, 0.0346,-1.3907,-1.4852, 3.1035
09-Sep-2020 10:51:13.938,-0.1218, 0.9643, 0.0324,-0.0231,-0.1338, 0.0164,-1.3955,-1.4857, 3.0999
09-Sep-2020 10:51:13.948,-0.0986, 0.9650, 0.0319,-0.0123,-0.0913, 0.0043,-1.3996,-1.4859, 3.0971
09-Sep-2020 10:51:13.958,-0.0810, 0.9677, 0.0234,-0.0035,-0.0288,-0.0051,-1.4021,-1.4860, 3.0955
09-Sep-2020 10:51:13.968,-0.0710, 0.9719, 0.0109, 0.0062, 0.0349,-0.0104,-1.4030,-1.4859, 3.0949
09-Sep-2020 10:51:13.978,-0.0691, 0.9758, 0.0023, 0.0136, 0.0865,-0.0159,-1.4025,-1.4857, 3.0951
09-Sep-2020 10:51:13.987,-0.0705, 0.9763,-0.0037, 0.0263, 0.1253,-0.0164,-1.4007,-1.4854, 3.0961
09-Sep-2020 10:51:13.997,-0.0722, 0.9759,-0.0032, 0.0452, 0.1532,-0.0151,-1.3971,-1.4851, 3.0985
09-Sep-2020 10:51:14.008,-0.0726, 0.9734, 0.0021, 0.0627, 0.1696,-0.0124,-1.3914,-1.4848, 3.1027
09-Sep-2020 10:51:14.018,-0.0738, 0.9726, 0.0079, 0.0706, 0.1729,-0.0060,-1.3838,-1.4845, 3.1087
09-Sep-2020 10:51:14.027,-0.0790, 0.9715, 0.0142, 0.0713, 0.1752,-0.0014,-1.3749,-1.4843, 3.1159
09-Sep-2020 10:51:14.037,-0.0833, 0.9701, 0.0188, 0.0686, 0.1834, 0.0042,-1.3658,-1.4842, 3.1233
09-Sep-2020 10:51:14.047,-0.0933, 0.9713, 0.0202, 0.0730, 0.1939, 0.0048,-1.3564,-1.4842, 3.1309
09-Sep-2020 10:51:14.058,-0.1054, 0.9760, 0.0229, 0.0790, 0.2069,-0.0002,-1.3461,-1.4841, 3.1393
09-Sep-2020 10:51:14.067,-0.1168, 0.9847, 0.0245, 0.0828, 0.2120,-0.0089,-1.3350,-1.4840,-3.1348
09-Sep-2020 10:51:14.077,-0.1234, 0.9924, 0.0241, 0.0818, 0.2102,-0.0232,-1.3235,-1.4838,-3.1253
09-Sep-2020 10:51:14.087,-0.1259, 0.9944, 0.0219, 0.0820, 0.1976,-0.0324,-1.3125,-1.4835,-3.1163
09-Sep-2020 10:51:14.097,-0.1248, 0.9924, 0.0178, 0.0762, 0.1833,-0.0400,-1.3021,-1.4830,-3.1079
09-Sep-2020 10:51:14.107,-0.1218, 0.9894, 0.0167, 0.0766, 0.1746,-0.0443,-1.2929,-1.4825,-3.1004
09-Sep-2020 10:51:14.117,-0.1167, 0.9875, 0.0153, 0.0768, 0.1714,-0.0491,-1.2843,-1.4820,-3.0935
09-Sep-2020 10:51:14.127,-0.1115, 0.9840, 0.0182, 0.0749, 0.1759,-0.0486,-1.2762,-1.4814,-3.0871
09-Sep-2020 10:51:14.137,-0.1073, 0.9848, 0.0213, 0.0755, 0.1725,-0.0449,-1.2683,-1.4808,-3.0810
09-Sep-2020 10:51:14.147,-0.1034, 0.9897, 0.0224, 0.0849, 0.1620,-0.0390,-1.2604,-1.4802,-3.0748
09-Sep-2020 10:51:14.157,-0.1001, 0.9864, 0.0225, 0.0893, 0.1497,-0.0306,-1.2520,-1.4796,-3.0679
09-Sep-2020 10:51:14.166,-0.0996, 0.9859, 0.0202, 0.0914, 0.1356,-0.0139,-1.2431,-1.4790,-3.0604
09-Sep-2020 10:51:14.176,-0.1050, 0.9876, 0.0169, 0.0896, 0.1259,-0.0065,-1.2337,-1.4786,-3.0522
09-Sep-2020 10:51:14.187,-0.1105, 0.9895, 0.0094, 0.0879, 0.1138,-0.0030,-1.2242,-1.4783,-3.0440
09-Sep-2020 10:51:14.197,-0.1146, 0.9890, 0.0060, 0.0861, 0.1097,-0.0044,-1.2150,-1.4780,-3.0359
09-Sep-2020 10:51:14.206,-0.1173, 0.9879, 0.0040, 0.0908, 0.1027,-0.0086,-1.2060,-1.4776,-3.0279
09-Sep-2020 10:51:14.216,-0.1146, 0.9868, 0.0057, 0.0874, 0.0866,-0.0161,-1.1970,-1.4773,-3.0199
09-Sep-2020 10:51:14.226,-0.1095, 0.9875, 0.0107, 0.0855, 0.0704,-0.0213,-1.1888,-1.4768,-3.0124
09-Sep-2020 10:51:14.237,-0.1062, 0.9836, 0.0147, 0.0757, 0.0528,-0.0228,-1.1812,-1.4764,-3.0055
09-Sep-2020 10:51:14.246,-0.1044, 0.9796, 0.0140, 0.0730, 0.0417,-0.0252,-1.1747,-1.4759,-2.9995
09-Sep-2020 10:51:14.256,-0.1057, 0.9767, 0.0053, 0.0777, 0.0223,-0.0316,-1.1687,-1.4755,-2.9939
09-Sep-2020 10:51:14.266,-0.0994, 0.9757,-0.0009, 0.0732, 0.0086,-0.0380,-1.1629,-1.4750,-2.9883
09-Sep-2020 10:51:14.276,-0.0886, 0.9753, 0.0007, 0.0622, 0.0069,-0.0385,-1.1579,-1.4744,-2.9834
09-Sep-2020 10:51:14.286,-0.0745, 0.9766, 0.0003, 0.0433, 0.0147,-0.0313,-1.1540,-1.4739,-2.9795
09-Sep-2020 10:51:14.296,-0.0632, 0.9821,-0.0060, 0.0108, 0.0193,-0.0191,-1.1517,-1.4734,-2.9773
09-Sep-2020 10:51:14.306,-0.0580, 0.9863,-0.0178,-0.0265, 0.0184,-0.0133,-1.1518,-1.4733,-2.9776
09-Sep-2020 10:51:14.316,-0.0629, 0.9906,-0.0305,-0.0433, 0.0277,-0.0178,-1.1549,-1.4733,-2.9809
09-Sep-2020 10:51:14.326,-0.0667, 0.9937,-0.0415,-0.0357, 0.0464,-0.0275,-1.1596,-1.4734,-2.9859
09-Sep-2020 10:51:14.336,-0.0631, 0.9919,-0.0488,-0.0148, 0.0709,-0.0355,-1.1639,-1.4733,-2.9906
09-Sep-2020 10:51:14.346,-0.0558, 0.9909,-0.0531,-0.0053, 0.0858,-0.0439,-1.1665,-1.4731,-2.9939
09-Sep-2020 10:51:14.356,-0.0483, 0.9878,-0.0586,-0.0100, 0.0927,-0.0417,-1.1681,-1.4728,-2.9964
09-Sep-2020 10:51:14.365,-0.0429, 0.9904,-0.0685,-0.0081, 0.1032,-0.0379,-1.1699,-1.4725,-2.9991
09-Sep-2020 10:51:14.376,-0.0435, 0.9942,-0.0850, 0.0203, 0.1325,-0.0330,-1.1709,-1.4723,-3.0012
09-Sep-2020 10:51:14.385,-0.0528, 0.9971,-0.0932, 0.0552, 0.1587,-0.0328,-1.1688,-1.4720,-3.0003
09-Sep-2020 10:51:14.395,-0.0651, 1.0029,-0.0862, 0.0674, 0.1745,-0.0386,-1.1632,-1.4716,-2.9963
09-Sep-2020 10:51:14.406,-0.0772, 1.0065,-0.0700, 0.0576, 0.1949,-0.0434,-1.1562,-1.4711,-2.9911
09-Sep-2020 10:51:14.415,-0.0843, 1.0114,-0.0513, 0.0328, 0.2151,-0.0454,-1.1500,-1.4706,-2.9867
09-Sep-2020 10:51:14.426,-0.0814, 1.0135,-0.0397, 0.0121, 0.2387,-0.0480,-1.1457,-1.4702,-2.9845
09-Sep-2020 10:51:14.435,-0.0724, 1.0142,-0.0389,-0.0088, 0.2500,-0.0509,-1.1431,-1.4698,-2.9843
09-Sep-2020 10:51:14.445,-0.0632, 1.0165,-0.0457,-0.0406, 0.2379,-0.0440,-1.1422,-1.4695,-2.9859
09-Sep-2020 10:51:14.455,-0.0616, 1.0150,-0.0545,-0.0629, 0.2357,-0.0370,-1.1438,-1.4694,-2.9899
09-Sep-2020 10:51:14.465,-0.0641, 1.0090,-0.0687,-0.0597, 0.2364,-0.0280,-1.1467,-1.4694,-2.9952
09-Sep-2020 10:51:14.475,-0.0714, 1.0014,-0.0803,-0.0399, 0.2480,-0.0237,-1.1488,-1.4695,-2.9996
09-Sep-2020 10:51:14.485,-0.0831, 0.9905,-0.0910,-0.0159, 0.2505,-0.0196,-1.1488,-1.4695,-3.0021
09-Sep-2020 10:51:14.495,-0.0895, 0.9868,-0.1032, 0.0087, 0.2397,-0.0201,-1.1467,-1.4694,-3.0026
09-Sep-2020 10:51:14.505,-0.0957, 0.9865,-0.1128, 0.0195, 0.2051,-0.0173,-1.1432,-1.4693,-3.0014
09-Sep-2020 10:51:14.515,-0.1059, 0.9925,-0.1112, 0.0306, 0.1772,-0.0180,-1.1393,-1.4691,-2.9995
09-Sep-2020 10:51:14.525,-0.1112, 1.0022,-0.1044, 0.0336, 0.1510,-0.0118,-1.1349,-1.4689,-2.9968
09-Sep-2020 10:51:14.535,-0.1169, 1.0146,-0.0900, 0.0276, 0.1142,-0.0078,-1.1300,-1.4688,-2.9934
09-Sep-2020 10:51:14.545,-0.1262, 1.0292,-0.0775, 0.0147, 0.0603,-0.0119,-1.1258,-1.4687,-2.9903
09-Sep-2020 10:51:14.555,-0.1315, 1.0338,-0.0672,-0.0049,-0.0091,-0.0129,-1.1233,-1.4686,-2.9884
09-Sep-2020 10:51:14.565,-0.1332, 1.0315,-0.0625,-0.0261,-0.0989,-0.0100,-1.1230,-1.4685,-2.9880
09-Sep-2020 10:51:14.575,-0.1302, 1.0232,-0.0701,-0.0386,-0.2106,-0.0115,-1.1252,-1.4686,-2.9892
09-Sep-2020 10:51:14.585,-0.1174, 1.0141,-0.0778,-0.0524,-0.3098,-0.0220,-1.1297,-1.4687,-2.9916
09-Sep-2020 10:51:14.594,-0.0995, 1.0025,-0.0807,-0.0573,-0.3733,-0.0188,-1.1365,-1.4687,-2.9954
09-Sep-2020 10:51:14.605,-0.0806, 0.9942,-0.0783,-0.0568,-0.3940,-0.0147,-1.1443,-1.4688,-2.9995
09-Sep-2020 10:51:14.614,-0.0669, 0.9901,-0.0755,-0.0490,-0.3787,-0.0042,-1.1521,-1.4689,-3.0034
09-Sep-2020 10:51:14.624,-0.0594, 0.9877,-0.0702,-0.0445,-0.3562, 0.0087,-1.1590,-1.4690,-3.0065
09-Sep-2020 10:51:14.634,-0.0555, 0.9918,-0.0586,-0.0422,-0.3128, 0.0156,-1.1651,-1.4692,-3.0091
09-Sep-2020 10:51:14.644,-0.0570, 0.9926,-0.0491,-0.0436,-0.2717, 0.0130,-1.1706,-1.4695,-3.0115
09-Sep-2020 10:51:14.655,-0.0582, 0.9873,-0.0392,-0.0417,-0.2395, 0.0110,-1.1759,-1.4698,-3.0141
09-Sep-2020 10:51:14.664,-0.0632, 0.9893,-0.0281,-0.0401,-0.2084, 0.0072,-1.1807,-1.4700,-3.0166
09-Sep-2020 10:51:14.674,-0.0782, 0.9968,-0.0158,-0.0403,-0.1810, 0.0036,-1.1852,-1.4702,-3.0190
09-Sep-2020 10:51:14.684,-0.0961, 1.0029,-0.0061,-0.0472,-0.1763, 0.0019,-1.1893,-1.4704,-3.0213
09-Sep-2020 10:51:14.694,-0.1080, 1.0045,-0.0089,-0.0635,-0.2288,-0.0215,-1.1941,-1.4706,-3.0243
09-Sep-2020 10:51:14.704,-0.1109, 1.0025,-0.0195,-0.0785,-0.2879,-0.0389,-1.2014,-1.4707,-3.0294
09-Sep-2020 10:51:14.714,-0.1109, 0.9971,-0.0246,-0.0816,-0.3113,-0.0484,-1.2112,-1.4707,-3.0363
09-Sep-2020 10:51:14.724,-0.1122, 0.9951,-0.0236,-0.0761,-0.3083,-0.0641,-1.2229,-1.4706,-3.0450
09-Sep-2020 10:51:14.734,-0.1107, 0.9964,-0.0202,-0.0653,-0.3083,-0.0823,-1.2346,-1.4703,-3.0537
09-Sep-2020 10:51:14.744,-0.1067, 0.9984,-0.0062,-0.0596,-0.3087,-0.0971,-1.2459,-1.4698,-3.0619
09-Sep-2020 10:51:14.754,-0.1014, 0.9982, 0.0091,-0.0644,-0.3051,-0.1065,-1.2570,-1.4691,-3.0700
09-Sep-2020 10:51:14.766,-0.0963, 1.0025, 0.0168,-0.0825,-0.3131,-0.1082,-1.2687,-1.4684,-3.0787
09-Sep-2020 10:51:14.773,-0.0996, 1.0096, 0.0204,-0.1058,-0.3282,-0.1134,-1.2820,-1.4677,-3.0889
09-Sep-2020 10:51:14.783,-0.1076, 1.0118, 0.0153,-0.1275,-0.3540,-0.1268,-1.2975,-1.4669,-3.1012
09-Sep-2020 10:51:14.794,-0.1119, 1.0100,-0.0016,-0.1443,-0.3903,-0.1412,-1.3153,-1.4661,-3.1156
09-Sep-2020 10:51:14.803,-0.1081, 1.0037,-0.0202,-0.1560,-0.4209,-0.1558,-1.3351,-1.4651,-3.1316
09-Sep-2020 10:51:14.814,-0.1001, 0.9991,-0.0373,-0.1607,-0.4306,-0.1645,-1.3562,-1.4640, 3.1347
09-Sep-2020 10:51:14.823,-0.0912, 0.9994,-0.0453,-0.1609,-0.4187,-0.1719,-1.3776,-1.4628, 3.1174
09-Sep-2020 10:51:14.833,-0.0783, 0.9986,-0.0452,-0.1560,-0.3885,-0.1775,-1.3987,-1.4615, 3.1004
09-Sep-2020 10:51:14.843,-0.0645, 0.9980,-0.0437,-0.1443,-0.3564,-0.1757,-1.4184,-1.4601, 3.0844
09-Sep-2020 10:51:14.853,-0.0530, 0.9952,-0.0382,-0.1337,-0.3305,-0.1686,-1.4365,-1.4586, 3.0699
09-Sep-2020 10:51:14.863,-0.0473, 0.9955,-0.0338,-0.1250,-0.3056,-0.1603,-1.4529,-1.4572, 3.0566
09-Sep-2020 10:51:14.873,-0.0514, 1.0045,-0.0301,-0.1159,-0.2638,-0.1487,-1.4679,-1.4558, 3.0446
09-Sep-2020 10:51:14.883,-0.0664, 1.0144,-0.0319,-0.1050,-0.2348,-0.1293,-1.4813,-1.4545, 3.0338
09-Sep-2020 10:51:14.893,-0.0867, 1.0247,-0.0431,-0.1004,-0.2507,-0.1086,-1.4931,-1.4534, 3.0243
09-Sep-2020 10:51:14.903,-0.1031, 1.0302,-0.0647,-0.1102,-0.3388,-0.0923,-1.5045,-1.4524, 3.0154
09-Sep-2020 10:51:14.913,-0.1157, 1.0324,-0.0855,-0.1310,-0.4671,-0.0774,-1.5174,-1.4517, 3.0058
09-Sep-2020 10:51:14.923,-0.1297, 1.0263,-0.0962,-0.1396,-0.5643,-0.0601,-1.5328,-1.4510, 2.9949
09-Sep-2020 10:51:14.933,-0.1406, 1.0153,-0.0958,-0.1270,-0.6085,-0.0481,-1.5498,-1.4505, 2.9835
09-Sep-2020 10:51:14.943,-0.1438, 1.0022,-0.0900,-0.0905,-0.6117,-0.0452,-1.5659,-1.4501, 2.9733
09-Sep-2020 10:51:14.953,-0.1352, 0.9849,-0.0727,-0.0477,-0.6049,-0.0458,-1.5791,-1.4498, 2.9662
09-Sep-2020 10:51:14.963,-0.1176, 0.9708,-0.0458,-0.0215,-0.5898,-0.0440,-1.5887,-1.4494, 2.9625
09-Sep-2020 10:51:14.973,-0.1029, 0.9660,-0.0100,-0.0124,-0.5576,-0.0419,-1.5961,-1.4490, 2.9610
09-Sep-2020 10:51:14.983,-0.0992, 0.9719, 0.0286,-0.0209,-0.4916,-0.0316,-1.6024,-1.4487, 2.9602
09-Sep-2020 10:51:14.993,-0.1175, 0.9979, 0.0602,-0.0310,-0.4101,-0.0156,-1.6086,-1.4484, 2.9589
09-Sep-2020 10:51:15.003,-0.1501, 1.0236, 0.0647,-0.0398,-0.4124,-0.0119,-1.6148,-1.4483, 2.9569
09-Sep-2020 10:51:15.013,-0.1694, 1.0204, 0.0437,-0.0713,-0.5635,-0.0274,-1.6220,-1.4482, 2.9538
09-Sep-2020 10:51:15.023,-0.1810, 1.0124, 0.0219,-0.1219,-0.7422,-0.0495,-1.6331,-1.4480, 2.9483
09-Sep-2020 10:51:15.032,-0.1929, 1.0035, 0.0193,-0.1578,-0.8313,-0.0584,-1.6496,-1.4475, 2.9391
09-Sep-2020 10:51:15.042,-0.2025, 0.9910, 0.0339,-0.1780,-0.8091,-0.0561,-1.6698,-1.4469, 2.9270
09-Sep-2020 10:51:15.053,-0.2054, 0.9778, 0.0422,-0.1877,-0.7457,-0.0577,-1.6912,-1.4462, 2.9136
09-Sep-2020 10:51:15.062,-0.2003, 0.9689, 0.0491,-0.1877,-0.6958,-0.0720,-1.7126,-1.4454, 2.8995
09-Sep-2020 10:51:15.072,-0.1871, 0.9728, 0.0560,-0.1816,-0.6617,-0.0942,-1.7331,-1.4445, 2.8858
09-Sep-2020 10:51:15.082,-0.1712, 0.9815, 0.0715,-0.1708,-0.6290,-0.1120,-1.7524,-1.4434, 2.8731
09-Sep-2020 10:51:15.092,-0.1640, 0.9962, 0.0956,-0.1653,-0.5819,-0.1225,-1.7699,-1.4421, 2.8617
09-Sep-2020 10:51:15.102,-0.1600, 1.0086, 0.1184,-0.1567,-0.5408,-0.1171,-1.7860,-1.4406, 2.8513
09-Sep-2020 10:51:15.112,-0.1683, 1.0259, 0.1368,-0.1589,-0.5175,-0.1166,-1.8008,-1.4392, 2.8418
09-Sep-2020 10:51:15.122,-0.1808, 1.0448, 0.1443,-0.1635,-0.5487,-0.1237,-1.8153,-1.4378, 2.8324
09-Sep-2020 10:51:15.132,-0.1924, 1.0569, 0.1407,-0.1774,-0.6248,-0.1326,-1.8302,-1.4363, 2.8229
09-Sep-2020 10:51:15.142,-0.2033, 1.0553, 0.1346,-0.2024,-0.7281,-0.1557,-1.8463,-1.4346, 2.8130
09-Sep-2020 10:51:15.152,-0.2020, 1.0409, 0.1233,-0.2302,-0.8417,-0.1526,-1.8645,-1.4327, 2.8020
09-Sep-2020 10:51:15.162,-0.2009, 1.0264, 0.1138,-0.2546,-0.9490,-0.1478,-1.8852,-1.4306, 2.7895
09-Sep-2020 10:51:15.172,-0.2006, 1.0063, 0.1069,-0.2579,-1.0367,-0.1334,-1.9081,-1.4285, 2.7760
09-Sep-2020 10:51:15.182,-0.2011, 0.9991, 0.0962,-0.2435,-1.1067,-0.1314,-1.9318,-1.4264, 2.7624
09-Sep-2020 10:51:15.192,-0.1969, 0.9936, 0.0904,-0.2105,-1.1590,-0.1352,-1.9549,-1.4244, 2.7502
09-Sep-2020 10:51:15.201,-0.1843, 0.9890, 0.0944,-0.1657,-1.1837,-0.1301,-1.9759,-1.4225, 2.7406
09-Sep-2020 10:51:15.211,-0.1723, 0.9920, 0.1031,-0.1357,-1.1982,-0.1111,-1.9943,-1.4207, 2.7339
09-Sep-2020 10:51:15.221,-0.1629, 0.9959, 0.1087,-0.1243,-1.1999,-0.0815,-2.0113,-1.4192, 2.7288
09-Sep-2020 10:51:15.231,-0.1495, 0.9902, 0.1143,-0.1347,-1.1657,-0.0417,-2.0282,-1.4180, 2.7237
09-Sep-2020 10:51:15.241,-0.1350, 0.9767, 0.1092,-0.1658,-1.1084, 0.0084,-2.0466,-1.4171, 2.7169
09-Sep-2020 10:51:15.252,-0.1307, 0.9652, 0.0891,-0.1667,-1.0336, 0.0501,-2.0673,-1.4165, 2.7071
09-Sep-2020 10:51:15.261,-0.1348, 0.9554, 0.0600,-0.1269,-0.9451, 0.0709,-2.0883,-1.4162, 2.6962
09-Sep-2020 10:51:15.271,-0.1421, 0.9432, 0.0370,-0.0502,-0.8595, 0.0689,-2.1068,-1.4163, 2.6870
09-Sep-2020 10:51:15.281,-0.1390, 0.9310, 0.0303, 0.0019,-0.7880, 0.0519,-2.1205,-1.4166, 2.6818
09-Sep-2020 10:51:15.291,-0.1214, 0.9290, 0.0357,-0.0054,-0.6986, 0.0623,-2.1304,-1.4172, 2.6797
09-Sep-2020 10:51:15.301,-0.1105, 0.9169, 0.0374,-0.0348,-0.5924, 0.0813,-2.1399,-1.4177, 2.6771
09-Sep-2020 10:51:15.311,-0.1100, 0.9181, 0.0292,-0.0565,-0.4748, 0.0529,-2.1506,-1.4183, 2.6723
09-Sep-2020 10:51:15.321,-0.1004, 0.9207, 0.0206,-0.0273,-0.3636,-0.0176,-2.1601,-1.4185, 2.6675
09-Sep-2020 10:51:15.331,-0.0744, 0.9270, 0.0336, 0.0427,-0.2418,-0.0919,-2.1644,-1.4183, 2.6667
09-Sep-2020 10:51:15.341,-0.0351, 0.9294, 0.0640, 0.1024,-0.1245,-0.1228,-2.1616,-1.4179, 2.6721
09-Sep-2020 10:51:15.352,-0.0037, 0.9419, 0.0931, 0.1494,-0.0386,-0.1204,-2.1532,-1.4175, 2.6818
09-Sep-2020 10:51:15.361, 0.0267, 0.9559, 0.1320, 0.2006, 0.0086,-0.1197,-2.1413,-1.4174, 2.6942
09-Sep-2020 10:51:15.371, 0.0517, 0.9799, 0.1703, 0.2246,-0.0248,-0.1144,-2.1264,-1.4176, 2.7093
09-Sep-2020 10:51:15.381, 0.0677, 0.9980, 0.2007, 0.2078,-0.1020,-0.1016,-2.1107,-1.4178, 2.7255
09-Sep-2020 10:51:15.391, 0.0858, 1.0080, 0.2202, 0.1563,-0.1675,-0.0774,-2.0970,-1.4181, 2.7404
09-Sep-2020 10:51:15.401, 0.0890, 1.0062, 0.2376, 0.0846,-0.1710,-0.0545,-2.0874,-1.4183, 2.7517
09-Sep-2020 10:51:15.411, 0.0562, 0.9858, 0.2490, 0.0047,-0.0857,-0.0497,-2.0826,-1.4183, 2.7583
09-Sep-2020 10:51:15.421,-0.0232, 0.9505, 0.2466,-0.0774, 0.0940,-0.0342,-2.0816,-1.4179, 2.7601
09-Sep-2020 10:51:15.432,-0.1105, 0.9405, 0.2183,-0.1621, 0.2536,-0.0348,-2.0840,-1.4173, 2.7568
09-Sep-2020 10:51:15.440,-0.1770, 0.9400, 0.1758,-0.2306, 0.3333,-0.0778,-2.0894,-1.4163, 2.7488
09-Sep-2020 10:51:15.451,-0.2115, 0.9280, 0.1300,-0.2604, 0.3536,-0.1344,-2.0963,-1.4146, 2.7386
09-Sep-2020 10:51:15.460,-0.2165, 0.9151, 0.0902,-0.2460, 0.3521,-0.1584,-2.1026,-1.4122, 2.7286
09-Sep-2020 10:51:15.470,-0.2204, 0.9080, 0.0568,-0.2015, 0.3236,-0.1601,-2.1073,-1.4097, 2.7204
09-Sep-2020 10:51:15.480,-0.2204, 0.9065, 0.0378,-0.1445, 0.2845,-0.1617,-2.1096,-1.4074, 2.7148
09-Sep-2020 10:51:15.490,-0.2147, 0.9148, 0.0262,-0.0801, 0.2572,-0.1596,-2.1093,-1.4054, 2.7122
09-Sep-2020 10:51:15.500,-0.1940, 0.9329, 0.0255,-0.0084, 0.2387,-0.1705,-2.1060,-1.4037, 2.7130
09-Sep-2020 10:51:15.510,-0.1443, 0.9472, 0.0368, 0.0482, 0.2210,-0.1843,-2.0990,-1.4022, 2.7177
09-Sep-2020 10:51:15.520,-0.0906, 0.9482, 0.0554, 0.0867, 0.2119,-0.1830,-2.0891,-1.4010, 2.7255
09-Sep-2020 10:51:15.530,-0.0496, 0.9514, 0.0698, 0.1132, 0.2268,-0.1693,-2.0775,-1.3999, 2.7352
09-Sep-2020 10:51:15.540,-0.0220, 0.9562, 0.0790, 0.1425, 0.2578,-0.1507,-2.0649,-1.3991, 2.7457
09-Sep-2020 10:51:15.550,-0.0104, 0.9570, 0.0846, 0.1750, 0.3159,-0.1291,-2.0511,-1.3985, 2.7570
09-Sep-2020 10:51:15.560,-0.0109, 0.9607, 0.0894, 0.2033, 0.3602,-0.1054,-2.0358,-1.3982, 2.7694
09-Sep-2020 10:51:15.570,-0.0121, 0.9613, 0.0939, 0.2249, 0.3890,-0.0811,-2.0191,-1.3982, 2.7827
09-Sep-2020 10:51:15.580,-0.0153, 0.9597, 0.1047, 0.2290, 0.4007,-0.0544,-2.0017,-1.3986, 2.7965
09-Sep-2020 10:51:15.590,-0.0290, 0.9590, 0.1189, 0.2261, 0.4070,-0.0307,-1.9845,-1.3991, 2.8099
09-Sep-2020 10:51:15.600,-0.0599, 0.9580, 0.1344, 0.2179, 0.4359,-0.0195,-1.9678,-1.3998, 2.8227
09-Sep-2020 10:51:15.610,-0.0952, 0.9588, 0.1506, 0.1943, 0.4803,-0.0192,-1.9515,-1.4005, 2.8349
09-Sep-2020 10:51:15.619,-0.1290, 0.9695, 0.1642, 0.1392, 0.5217,-0.0356,-1.9359,-1.4011, 2.8458
09-Sep-2020 10:51:15.629,-0.1565, 0.9866, 0.1681, 0.0735, 0.5630,-0.0586,-1.9224,-1.4013, 2.8543
09-Sep-2020 10:51:15.640,-0.1744, 1.0087, 0.1647, 0.0240, 0.6028,-0.0756,-1.9115,-1.4011, 2.8596
09-Sep-2020 10:51:15.650,-0.1923, 1.0281, 0.1552, 0.0031, 0.6424,-0.0928,-1.9026,-1.4005, 2.8626
09-Sep-2020 10:51:15.660,-0.2101, 1.0408, 0.1492, 0.0030, 0.6759,-0.1128,-1.8942,-1.3998, 2.8646
09-Sep-2020 10:51:15.669,-0.2223, 1.0386, 0.1500,-0.0072, 0.6889,-0.1408,-1.8854,-1.3988, 2.8668
09-Sep-2020 10:51:15.679,-0.2276, 1.0213, 0.1566,-0.0360, 0.6693,-0.1620,-1.8766,-1.3975, 2.8688
09-Sep-2020 10:51:15.689,-0.2321, 1.0017, 0.1602,-0.0724, 0.6177,-0.1764,-1.8691,-1.3959, 2.8697
09-Sep-2020 10:51:15.699,-0.2341, 0.9859, 0.1585,-0.1062, 0.5535,-0.1822,-1.8639,-1.3941, 2.8687
09-Sep-2020 10:51:15.709,-0.2352, 0.9790, 0.1520,-0.1090, 0.4850,-0.1838,-1.8610,-1.3922, 2.8661
09-Sep-2020 10:51:15.719,-0.2325, 0.9779, 0.1372,-0.1026, 0.4254,-0.1880,-1.8589,-1.3902, 2.8633
09-Sep-2020 10:51:15.729,-0.2193, 0.9709, 0.1215,-0.1025, 0.3744,-0.1867,-1.8571,-1.3882, 2.8608
09-Sep-2020 10:51:15.739,-0.2005, 0.9727, 0.1039,-0.0970, 0.3309,-0.1997,-1.8557,-1.3862, 2.8585
09-Sep-2020 10:51:15.750,-0.1768, 0.9676, 0.0836,-0.0950, 0.2860,-0.2253,-1.8543,-1.3841, 2.8565
09-Sep-2020 10:51:15.759,-0.1478, 0.9520, 0.0688,-0.0966, 0.2479,-0.2475,-1.8530,-1.3817, 2.8551
09-Sep-2020 10:51:15.769,-0.1219, 0.9346, 0.0536,-0.1056, 0.2276,-0.2591,-1.8517,-1.3792, 2.8538
09-Sep-2020 10:51:15.779,-0.1100, 0.9181, 0.0455,-0.1191, 0.2402,-0.2636,-1.8509,-1.3765, 2.8523
09-Sep-2020 10:51:15.789,-0.1127, 0.9120, 0.0327,-0.1185, 0.2696,-0.2611,-1.8505,-1.3737, 2.8503
09-Sep-2020 10:51:15.799,-0.1271, 0.9353, 0.0249,-0.0995, 0.2990,-0.2649,-1.8497,-1.3710, 2.8484
09-Sep-2020 10:51:15.809,-0.1423, 0.9780, 0.0213,-0.0594, 0.3323,-0.2811,-1.8477,-1.3682, 2.8474
09-Sep-2020 10:51:15.819,-0.1474, 1.0102, 0.0328,-0.0043, 0.3804,-0.2988,-1.8433,-1.3655, 2.8485
09-Sep-2020 10:51:15.828,-0.1390, 1.0224, 0.0615, 0.0411, 0.4697,-0.3032,-1.8359,-1.3627, 2.8522
09-Sep-2020 10:51:15.838,-0.1274, 1.0179, 0.0929, 0.0522, 0.5720,-0.2973,-1.8257,-1.3600, 2.8578
09-Sep-2020 10:51:15.849,-0.1184, 1.0043, 0.1091, 0.0252, 0.6518,-0.2728,-1.8144,-1.3573, 2.8636
09-Sep-2020 10:51:15.858,-0.1128, 0.9870, 0.1026,-0.0142, 0.6969,-0.2292,-1.8038,-1.3548, 2.8678
09-Sep-2020 10:51:15.869,-0.1189, 0.9768, 0.0823,-0.0351, 0.7176,-0.1857,-1.7951,-1.3526, 2.8697
09-Sep-2020 10:51:15.878,-0.1323, 0.9776, 0.0578,-0.0379, 0.7283,-0.1433,-1.7876,-1.3508, 2.8701
09-Sep-2020 10:51:15.889,-0.1535, 0.9821, 0.0414,-0.0149, 0.7496,-0.1122,-1.7805,-1.3494, 2.8699
09-Sep-2020 10:51:15.898,-0.1698, 0.9840, 0.0307, 0.0231, 0.7696,-0.0896,-1.7725,-1.3484, 2.8704
09-Sep-2020 10:51:15.908,-0.1830, 0.9810, 0.0282, 0.0581, 0.7775,-0.0679,-1.7630,-1.3476, 2.8723
09-Sep-2020 10:51:15.918,-0.2018, 0.9758, 0.0401, 0.0809, 0.7810,-0.0567,-1.7521,-1.3471, 2.8756
09-Sep-2020 10:51:15.928,-0.2136, 0.9675, 0.0535, 0.0822, 0.7790,-0.0432,-1.7405,-1.3468, 2.8796
09-Sep-2020 10:51:15.939,-0.2315, 0.9608, 0.0687, 0.0694, 0.7679,-0.0351,-1.7288,-1.3466, 2.8836
09-Sep-2020 10:51:15.949,-0.2500, 0.9538, 0.0844, 0.0488, 0.7822,-0.0302,-1.7179,-1.3464, 2.8870
09-Sep-2020 10:51:15.958,-0.2612, 0.9477, 0.0917, 0.0176, 0.7944,-0.0149,-1.7077,-1.3463, 2.8894
09-Sep-2020 10:51:15.968,-0.2717, 0.9468, 0.0908,-0.0073, 0.7972,-0.0067,-1.6989,-1.3462, 2.8904
09-Sep-2020 10:51:15.978,-0.2831, 0.9501, 0.0871,-0.0259, 0.7966,-0.0005,-1.6911,-1.3462, 2.8902
09-Sep-2020 10:51:15.988,-0.2898, 0.9608, 0.0806,-0.0286, 0.7873,-0.0045,-1.6842,-1.3463, 2.8892
09-Sep-2020 10:51:15.998,-0.2964, 0.9753, 0.0746,-0.0382, 0.7606,-0.0062,-1.6775,-1.3463, 2.8880
09-Sep-2020 10:51:16.008,-0.3011, 0.9837, 0.0719,-0.0488, 0.7283,-0.0110,-1.6714,-1.3463, 2.8865
09-Sep-2020 10:51:16.018,-0.2983, 0.9846, 0.0642,-0.0622, 0.6893,-0.0098,-1.6661,-1.3462, 2.8845
09-Sep-2020 10:51:16.028,-0.2892, 0.9822, 0.0482,-0.0614, 0.6398,-0.0045,-1.6618,-1.3461, 2.8820
09-Sep-2020 10:51:16.038,-0.2785, 0.9796, 0.0307,-0.0507, 0.5855, 0.0158,-1.6579,-1.3461, 2.8794
09-Sep-2020 10:51:16.048,-0.2723, 0.9726, 0.0178,-0.0217, 0.5382, 0.0339,-1.6542,-1.3463, 2.8772
09-Sep-2020 10:51:16.057,-0.2726, 0.9683, 0.0105, 0.0055, 0.4832, 0.0438,-1.6498,-1.3467, 2.8763
09-Sep-2020 10:51:16.068,-0.2766, 0.9632, 0.0125, 0.0276, 0.4191, 0.0471,-1.6448,-1.3472, 2.8765
09-Sep-2020 10:51:16.078,-0.2828, 0.9599, 0.0220, 0.0351, 0.3630, 0.0446,-1.6394,-1.3477, 2.8777
09-Sep-2020 10:51:16.087,-0.2909, 0.9605, 0.0292, 0.0384, 0.3092, 0.0433,-1.6342,-1.3483, 2.8793
09-Sep-2020 10:51:16.098,-0.2968, 0.9647, 0.0287, 0.0359, 0.2554, 0.0357,-1.6295,-1.3488, 2.8811
09-Sep-2020 10:51:16.107,-0.3049, 0.9644, 0.0229, 0.0292, 0.2131, 0.0247,-1.6253,-1.3492, 2.8827
09-Sep-2020 10:51:16.117,-0.3088, 0.9659, 0.0164, 0.0395, 0.1815, 0.0142,-1.6217,-1.3496, 2.8842
09-Sep-2020 10:51:16.127,-0.3091, 0.9676, 0.0150, 0.0459, 0.1772,-0.0008,-1.6181,-1.3498, 2.8861
09-Sep-2020 10:51:16.137,-0.3098, 0.9711, 0.0229, 0.0584, 0.1953,-0.0148,-1.6142,-1.3499, 2.8883
09-Sep-2020 10:51:16.148,-0.3105, 0.9726, 0.0349, 0.0696, 0.2138,-0.0198,-1.6095,-1.3499, 2.8911
09-Sep-2020 10:51:16.157,-0.3082, 0.9756, 0.0459, 0.0800, 0.2214,-0.0224,-1.6042,-1.3498, 2.8943
09-Sep-2020 10:51:16.167,-0.3043, 0.9794, 0.0538, 0.0902, 0.1999,-0.0154,-1.5983,-1.3496, 2.8982
09-Sep-2020 10:51:16.177,-0.2921, 0.9842, 0.0574, 0.0956, 0.1684,-0.0025,-1.5922,-1.3496, 2.9024
09-Sep-2020 10:51:16.187,-0.2760, 0.9847, 0.0519, 0.0978, 0.1116, 0.0096,-1.5862,-1.3496, 2.9069
09-Sep-2020 10:51:16.197,-0.2588, 0.9760, 0.0410, 0.0946, 0.0464, 0.0200,-1.5806,-1.3498, 2.9115
09-Sep-2020 10:51:16.207,-0.2492, 0.9664, 0.0292, 0.0917,-0.0152, 0.0346,-1.5758,-1.3501, 2.9160
09-Sep-2020 10:51:16.217,-0.2464, 0.9631, 0.0215, 0.0861,-0.0584, 0.0459,-1.5717,-1.3505, 2.9204
09-Sep-2020 10:51:16.227,-0.2466, 0.9649, 0.0111, 0.0868,-0.0815, 0.0503,-1.5683,-1.3509, 2.9244
09-Sep-2020 10:51:16.236,-0.2478, 0.9657, 0.0029, 0.0898,-0.0985, 0.0550,-1.5652,-1.3513, 2.9284
09-Sep-2020 10:51:16.247,-0.2523, 0.9673,-0.0018, 0.0926,-0.1144, 0.0575,-1.5623,-1.3517, 2.9324
09-Sep-2020 10:51:16.257,-0.2566, 0.9697,-0.0020, 0.0964,-0.1339, 0.0507,-1.5595,-1.3521, 2.9365
09-Sep-2020 10:51:16.266,-0.2602, 0.9726, 0.0108, 0.1015,-0.1363, 0.0480,-1.5568,-1.3525, 2.9407
09-Sep-2020 10:51:16.276,-0.2584, 0.9741, 0.0231, 0.0992,-0.1369, 0.0341,-1.5539,-1.3529, 2.9450
09-Sep-2020 10:51:16.286,-0.2523, 0.9790, 0.0316, 0.0984,-0.1436, 0.0263,-1.5510,-1.3532, 2.9494
09-Sep-2020 10:51:16.296,-0.2440, 0.9872, 0.0344, 0.0878,-0.1574, 0.0277,-1.5482,-1.3535, 2.9538
09-Sep-2020 10:51:16.306,-0.2351, 0.9891, 0.0339, 0.0730,-0.1807, 0.0354,-1.5459,-1.3538, 2.9577
09-Sep-2020 10:51:16.316,-0.2312, 0.9846, 0.0249, 0.0545,-0.2275, 0.0452,-1.5444,-1.3541, 2.9612
09-Sep-2020 10:51:16.326,-0.2282, 0.9763, 0.0133, 0.0398,-0.2873, 0.0578,-1.5441,-1.3545, 2.9638
09-Sep-2020 10:51:16.336,-0.2247, 0.9788, 0.0040, 0.0265,-0.3362, 0.0642,-1.5450,-1.3551, 2.9659
09-Sep-2020 10:51:16.347,-0.2230, 0.9808,-0.0042, 0.0168,-0.3707, 0.0716,-1.5468,-1.3557, 2.9674
09-Sep-2020 10:51:16.356,-0.2202, 0.9808,-0.0119, 0.0158,-0.3842, 0.0744,-1.5495,-1.3564, 2.9684
09-Sep-2020 10:51:16.366,-0.2176, 0.9785,-0.0232, 0.0183,-0.3843, 0.0731,-1.5525,-1.3571, 2.9693
09-Sep-2020 10:51:16.376,-0.2107, 0.9745,-0.0272, 0.0327,-0.3839, 0.0589,-1.5555,-1.3578, 2.9701
09-Sep-2020 10:51:16.386,-0.2034, 0.9769,-0.0255, 0.0424,-0.3543, 0.0504,-1.5579,-1.3584, 2.9716
09-Sep-2020 10:51:16.396,-0.1941, 0.9802,-0.0233, 0.0478,-0.3084, 0.0413,-1.5595,-1.3589, 2.9735
09-Sep-2020 10:51:16.406,-0.1855, 0.9779,-0.0188, 0.0621,-0.2547, 0.0220,-1.5601,-1.3594, 2.9761
09-Sep-2020 10:51:16.416,-0.1780, 0.9744,-0.0093, 0.0736,-0.2226, 0.0039,-1.5596,-1.3596, 2.9792
09-Sep-2020 10:51:16.426,-0.1709, 0.9803, 0.0053, 0.0715,-0.1830,-0.0034,-1.5583,-1.3598, 2.9828
09-Sep-2020 10:51:16.435,-0.1681, 0.9814, 0.0105, 0.0655,-0.1664,-0.0096,-1.5567,-1.3598, 2.9864
09-Sep-2020 10:51:16.446,-0.1663, 0.9733, 0.0116, 0.0577,-0.1578,-0.0304,-1.5553,-1.3598, 2.9896
09-Sep-2020 10:51:16.455,-0.1549, 0.9715, 0.0082, 0.0522,-0.1183,-0.0462,-1.5540,-1.3595, 2.9924
09-Sep-2020 10:51:16.465,-0.1438, 0.9809,-0.0002, 0.0514,-0.0647,-0.0315,-1.5527,-1.3591, 2.9950
09-Sep-2020 10:51:16.475,-0.1391, 0.9817,-0.0002, 0.0570,-0.0157,-0.0299,-1.5508,-1.3589, 2.9976
09-Sep-2020 10:51:16.486,-0.1341, 0.9725, 0.0059, 0.0600, 0.0393,-0.0349,-1.5482,-1.3586, 3.0004
09-Sep-2020 10:51:16.495,-0.1329, 0.9668, 0.0067, 0.0631, 0.0959,-0.0430,-1.5447,-1.3584, 3.0036
09-Sep-2020 10:51:16.505,-0.1380, 0.9721, 0.0095, 0.0638, 0.1438,-0.0374,-1.5405,-1.3580, 3.0069
09-Sep-2020 10:51:16.515,-0.1552, 0.9816, 0.0113, 0.0482, 0.1878,-0.0307,-1.5360,-1.3578, 3.0100
09-Sep-2020 10:51:16.525,-0.1754, 0.9873, 0.0130, 0.0386, 0.2032,-0.0338,-1.5319,-1.3576, 3.0124
09-Sep-2020 10:51:16.535,-0.1901, 0.9908, 0.0131, 0.0201, 0.2099,-0.0309,-1.5282,-1.3574, 3.0141
09-Sep-2020 10:51:16.545,-0.2024, 0.9935, 0.0114, 0.0127, 0.1997,-0.0294,-1.5252,-1.3573, 3.0151
09-Sep-2020 10:51:16.555,-0.2114, 0.9885, 0.0096, 0.0169, 0.1786,-0.0246,-1.5225,-1.3572, 3.0158
09-Sep-2020 10:51:16.565,-0.2190, 0.9813, 0.0092, 0.0251, 0.1358,-0.0184,-1.5199,-1.3571, 3.0167
09-Sep-2020 10:51:16.575,-0.2242, 0.9776, 0.0081, 0.0350, 0.0849,-0.0081,-1.5173,-1.3572, 3.0180
09-Sep-2020 10:51:16.585,-0.2289, 0.9774, 0.0061, 0.0378, 0.0548, 0.0004,-1.5148,-1.3573, 3.0197
09-Sep-2020 10:51:16.595,-0.2342, 0.9797, 0.0048, 0.0469, 0.0364, 0.0096,-1.5124,-1.3575, 3.0216
09-Sep-2020 10:51:16.605,-0.2396, 0.9790, 0.0060, 0.0496, 0.0262, 0.0106,-1.5098,-1.3578, 3.0238
09-Sep-2020 10:51:16.615,-0.2391, 0.9776, 0.0115, 0.0375, 0.0115, 0.0093,-1.5073,-1.3580, 3.0262
09-Sep-2020 10:51:16.625,-0.2369, 0.9787, 0.0104, 0.0189,-0.0126, 0.0114,-1.5055,-1.3583, 3.0280
09-Sep-2020 10:51:16.634,-0.2354, 0.9783, 0.0001, 0.0012,-0.0457, 0.0139,-1.5047,-1.3585, 3.0289
09-Sep-2020 10:51:16.645,-0.2332, 0.9753,-0.0141,-0.0050,-0.0764, 0.0137,-1.5051,-1.3587, 3.0290
09-Sep-2020 10:51:16.654,-0.2315, 0.9720,-0.0260,-0.0053,-0.1145, 0.0131,-1.5060,-1.3589, 3.0289
09-Sep-2020 10:51:16.665,-0.2308, 0.9705,-0.0320, 0.0054,-0.1257, 0.0193,-1.5073,-1.3591, 3.0287
09-Sep-2020 10:51:16.675,-0.2318, 0.9696,-0.0331, 0.0073,-0.1225, 0.0135,-1.5083,-1.3593, 3.0290
09-Sep-2020 10:51:16.684,-0.2315, 0.9705,-0.0339, 0.0132,-0.1177, 0.0072,-1.5091,-1.3595, 3.0294
09-Sep-2020 10:51:16.694,-0.2305, 0.9697,-0.0315, 0.0128,-0.1235, 0.0049,-1.5096,-1.3596, 3.0301
09-Sep-2020 10:51:16.704,-0.2287, 0.9685,-0.0287, 0.0121,-0.1254, 0.0070,-1.5102,-1.3596, 3.0308
09-Sep-2020 10:51:16.714,-0.2293, 0.9697,-0.0258, 0.0153,-0.1352, 0.0092,-1.5109,-1.3597, 3.0314
09-Sep-2020 10:51:16.724,-0.2299, 0.9726,-0.0233, 0.0275,-0.1372, 0.0089,-1.5114,-1.3598, 3.0323
09-Sep-2020 10:51:16.734,-0.2288, 0.9729,-0.0201, 0.0383,-0.1346, 0.0099,-1.5114,-1.3599, 3.0337
09-Sep-2020 10:51:16.744,-0.2271, 0.9740,-0.0178, 0.0387,-0.1382, 0.0057,-1.5107,-1.3600, 3.0358
09-Sep-2020 10:51:16.754,-0.2233, 0.9713,-0.0185, 0.0423,-0.1470, 0.0086,-1.5098,-1.3600, 3.0381
09-Sep-2020 10:51:16.767,-0.2218, 0.9681,-0.0210, 0.0465,-0.1631, 0.0096,-1.5089,-1.3601, 3.0405
09-Sep-2020 10:51:16.774,-0.2228, 0.9706,-0.0233, 0.0486,-0.1821,-0.0012,-1.5080,-1.3602, 3.0431
09-Sep-2020 10:51:16.784,-0.2223, 0.9704,-0.0227, 0.0519,-0.1908,-0.0080,-1.5071,-1.3602, 3.0459
09-Sep-2020 10:51:16.794,-0.2205, 0.9681,-0.0163, 0.0561,-0.1965,-0.0100,-1.5062,-1.3601, 3.0488
09-Sep-2020 10:51:16.804,-0.2147, 0.9681,-0.0089, 0.0538,-0.1879,-0.0170,-1.5052,-1.3600, 3.0517
09-Sep-2020 10:51:16.814,-0.2051, 0.9724,-0.0007, 0.0501,-0.1726,-0.0203,-1.5043,-1.3598, 3.0545
09-Sep-2020 10:51:16.824,-0.1956, 0.9804, 0.0076, 0.0399,-0.1392,-0.0240,-1.5035,-1.3596, 3.0571
09-Sep-2020 10:51:16.834,-0.1882, 0.9872, 0.0147, 0.0255,-0.1134,-0.0294,-1.5029,-1.3593, 3.0592
09-Sep-2020 10:51:16.844,-0.1875, 0.9913, 0.0193, 0.0072,-0.1002,-0.0270,-1.5027,-1.3591, 3.0605
09-Sep-2020 10:51:16.853,-0.1881, 0.9909, 0.0223,-0.0060,-0.1047,-0.0205,-1.5032,-1.3589, 3.0611
09-Sep-2020 10:51:16.863,-0.1883, 0.9852, 0.0190,-0.0147,-0.1198,-0.0129,-1.5043,-1.3587, 3.0610
09-Sep-2020 10:51:16.873,-0.1895, 0.9796, 0.0125,-0.0149,-0.1368,-0.0047,-1.5059,-1.3586, 3.0607
09-Sep-2020 10:51:16.883,-0.1885, 0.9789, 0.0082,-0.0169,-0.1350, 0.0020,-1.5076,-1.3586, 3.0602
09-Sep-2020 10:51:16.893,-0.1851, 0.9779, 0.0013,-0.0165,-0.1166, 0.0089,-1.5096,-1.3587, 3.0596
09-Sep-2020 10:51:16.904,-0.1830, 0.9779,-0.0045,-0.0156,-0.0949, 0.0152,-1.5114,-1.3589, 3.0590
09-Sep-2020 10:51:16.913,-0.1823, 0.9804,-0.0083,-0.0092,-0.0688, 0.0195,-1.5129,-1.3591, 3.0584
09-Sep-2020 10:51:16.923,-0.1827, 0.9817,-0.0092, 0.0005,-0.0422, 0.0276,-1.5139,-1.3594, 3.0581
09-Sep-2020 10:51:16.933,-0.1848, 0.9855,-0.0050, 0.0097,-0.0215, 0.0342,-1.5143,-1.3598, 3.0582
09-Sep-2020 10:51:16.943,-0.1863, 0.9879, 0.0035, 0.0095,-0.0039, 0.0442,-1.5141,-1.3603, 3.0586
09-Sep-2020 10:51:16.953,-0.1860, 0.9913, 0.0123, 0.0033, 0.0017, 0.0523,-1.5137,-1.3608, 3.0590
09-Sep-2020 10:51:16.963,-0.1829, 0.9907, 0.0132,-0.0028,-0.0035, 0.0674,-1.5135,-1.3615, 3.0593
09-Sep-2020 10:51:16.973,-0.1825, 0.9886, 0.0127,-0.0064,-0.0186, 0.0799,-1.5135,-1.3623, 3.0594
09-Sep-2020 10:51:16.983,-0.1836, 0.9860, 0.0103,-0.0074,-0.0421, 0.0926,-1.5137,-1.3632, 3.0594
09-Sep-2020 10:51:16.993,-0.1872, 0.9807, 0.0069, 0.0006,-0.0659, 0.1048,-1.5141,-1.3642, 3.0594
09-Sep-2020 10:51:17.003,-0.1949, 0.9745, 0.0023, 0.0075,-0.0917, 0.1074,-1.5143,-1.3654, 3.0599
09-Sep-2020 10:51:17.013,-0.2009, 0.9690,-0.0027, 0.0097,-0.1128, 0.1109,-1.5144,-1.3665, 3.0607
09-Sep-2020 10:51:17.023,-0.2110, 0.9626,-0.0066, 0.0152,-0.1268, 0.1034,-1.5145,-1.3677, 3.0617
09-Sep-2020 10:51:17.033,-0.2216, 0.9570,-0.0059, 0.0201,-0.1279, 0.0876,-1.5146,-1.3688, 3.0629
09-Sep-2020 10:51:17.043,-0.2298, 0.9528,-0.0038, 0.0261,-0.1101, 0.0708,-1.5145,-1.3698, 3.0643
09-Sep-2020 10:51:17.053,-0.2361, 0.9516, 0.0027, 0.0237,-0.0831, 0.0444,-1.5142,-1.3706, 3.0658
09-Sep-2020 10:51:17.063,-0.2387, 0.9571, 0.0119, 0.0264,-0.0444, 0.0197,-1.5136,-1.3711, 3.0672
09-Sep-2020 10:51:17.072,-0.2349, 0.9658, 0.0230, 0.0209, 0.0080,-0.0044,-1.5127,-1.3714, 3.0686
09-Sep-2020 10:51:17.082,-0.2237, 0.9728, 0.0314, 0.0045, 0.0465,-0.0268,-1.5116,-1.3714, 3.0697
09-Sep-2020 10:51:17.092,-0.2101, 0.9772, 0.0331,-0.0121, 0.0820,-0.0399,-1.5109,-1.3712, 3.0699
09-Sep-2020 10:51:17.102,-0.1985, 0.9793, 0.0305,-0.0268, 0.0951,-0.0477,-1.5107,-1.3709, 3.0693
09-Sep-2020 10:51:17.112,-0.1863, 0.9765, 0.0247,-0.0351, 0.0958,-0.0426,-1.5110,-1.3705, 3.0680
09-Sep-2020 10:51:17.122,-0.1801, 0.9759, 0.0181,-0.0379, 0.0861,-0.0335,-1.5117,-1.3702, 3.0664
09-Sep-2020 10:51:17.133,-0.1770, 0.9739, 0.0119,-0.0348, 0.0744,-0.0286,-1.5126,-1.3699, 3.0647
09-Sep-2020 10:51:17.143,-0.1746, 0.9745, 0.0037,-0.0275, 0.0763,-0.0258,-1.5135,-1.3696, 3.0630
09-Sep-2020 10:51:17.152,-0.1724, 0.9762,-0.0026,-0.0197, 0.0782,-0.0209,-1.5141,-1.3694, 3.0616
09-Sep-2020 10:51:17.162,-0.1703, 0.9781,-0.0069,-0.0110, 0.0840,-0.0192,-1.5144,-1.3692, 3.0606
09-Sep-2020 10:51:17.172,-0.1694, 0.9796,-0.0083,-0.0083, 0.0912,-0.0083,-1.5143,-1.3690, 3.0598
09-Sep-2020 10:51:17.182,-0.1720, 0.9819,-0.0083,-0.0094, 0.0987, 0.0006,-1.5140,-1.3690, 3.0592
09-Sep-2020 10:51:17.192,-0.1738, 0.9818,-0.0074,-0.0038, 0.1048, 0.0082,-1.5136,-1.3690, 3.0586
09-Sep-2020 10:51:17.202,-0.1793, 0.9814,-0.0044,-0.0001, 0.1048, 0.0181,-1.5128,-1.3692, 3.0584
09-Sep-2020 10:51:17.212,-0.1886, 0.9808,-0.0027, 0.0083, 0.0978, 0.0198,-1.5118,-1.3695, 3.0585
09-Sep-2020 10:51:17.222,-0.1975, 0.9778, 0.0005, 0.0125, 0.0959, 0.0165,-1.5104,-1.3698, 3.0589
09-Sep-2020 10:51:17.232,-0.2046, 0.9759, 0.0052, 0.0169, 0.0863, 0.0119,-1.5087,-1.3701, 3.0596
09-Sep-2020 10:51:17.242,-0.2073, 0.9733, 0.0069, 0.0210, 0.0779, 0.0083,-1.5069,-1.3703, 3.0606
09-Sep-2020 10:51:17.252,-0.2055, 0.9735, 0.0072, 0.0227, 0.0722, 0.0035,-1.5050,-1.3705, 3.0618
09-Sep-2020 10:51:17.262,-0.2028, 0.9737, 0.0058, 0.0245, 0.0722, 0.0024,-1.5029,-1.3706, 3.0632
09-Sep-2020 10:51:17.272,-0.2025, 0.9737, 0.0065, 0.0217, 0.0783, 0.0038,-1.5007,-1.3707, 3.0647
09-Sep-2020 10:51:17.282,-0.2008, 0.9732, 0.0100, 0.0122, 0.0859, 0.0012,-1.4986,-1.3709, 3.0661
09-Sep-2020 10:51:17.291,-0.1997, 0.9797, 0.0134, 0.0021, 0.0869,-0.0037,-1.4969,-1.3710, 3.0669
09-Sep-2020 10:51:17.302,-0.1958, 0.9788, 0.0130,-0.0040, 0.0905,-0.0005,-1.4958,-1.3711, 3.0672
09-Sep-2020 10:51:17.311,-0.1897, 0.9802, 0.0158,-0.0079, 0.1023, 0.0210,-1.4949,-1.3712, 3.0672
09-Sep-2020 10:51:17.321,-0.1915, 0.9852, 0.0165,-0.0152, 0.1032, 0.0264,-1.4942,-1.3714, 3.0669
09-Sep-2020 10:51:17.332,-0.1859, 0.9892, 0.0155,-0.0206, 0.0995, 0.0369,-1.4938,-1.3718, 3.0662
09-Sep-2020 10:51:17.342,-0.1809, 0.9897, 0.0142,-0.0234, 0.1005, 0.0456,-1.4937,-1.3722, 3.0654
09-Sep-2020 10:51:17.351,-0.1771, 0.9879, 0.0114,-0.0275, 0.0938, 0.0595,-1.4936,-1.3727, 3.0644
09-Sep-2020 10:51:17.361,-0.1737, 0.9878, 0.0087,-0.0334, 0.0842, 0.0743,-1.4938,-1.3734, 3.0633
09-Sep-2020 10:51:17.371,-0.1749, 0.9880, 0.0048,-0.0341, 0.0714, 0.0840,-1.4943,-1.3742, 3.0619
09-Sep-2020 10:51:17.381,-0.1810, 0.9868, 0.0007,-0.0362, 0.0597, 0.0897,-1.4950,-1.3751, 3.0605
09-Sep-2020 10:51:17.391,-0.1845, 0.9852,-0.0042,-0.0334, 0.0347, 0.0997,-1.4960,-1.3761, 3.0590
09-Sep-2020 10:51:17.401,-0.1901, 0.9834,-0.0058,-0.0307, 0.0194, 0.1071,-1.4970,-1.3772, 3.0576
09-Sep-2020 10:51:17.411,-0.1970, 0.9807,-0.0055,-0.0255, 0.0142, 0.1109,-1.4979,-1.3784, 3.0564
09-Sep-2020 10:51:17.421,-0.1994, 0.9789,-0.0095,-0.0199, 0.0204, 0.1139,-1.4987,-1.3796, 3.0555
09-Sep-2020 10:51:17.431,-0.2034, 0.9753,-0.0100,-0.0119, 0.0241, 0.1089,-1.4991,-1.3808, 3.0550
09-Sep-2020 10:51:17.441,-0.2024, 0.9703,-0.0089,-0.0059, 0.0329, 0.0993,-1.4990,-1.3820, 3.0548
09-Sep-2020 10:51:17.451,-0.2056, 0.9697,-0.0046,-0.0087, 0.0478, 0.0926,-1.4986,-1.3831, 3.0549
09-Sep-2020 10:51:17.461,-0.2113, 0.9704,-0.0003,-0.0127, 0.0551, 0.0824,-1.4982,-1.3841, 3.0549
09-Sep-2020 10:51:17.470,-0.2144, 0.9756, 0.0041,-0.0237, 0.0627, 0.0783,-1.4980,-1.3851, 3.0546
09-Sep-2020 10:51:17.481,-0.2226, 0.9801, 0.0081,-0.0307, 0.0581, 0.0667,-1.4982,-1.3859, 3.0538
09-Sep-2020 10:51:17.490,-0.2268, 0.9809, 0.0132,-0.0297, 0.0549, 0.0616,-1.4987,-1.3867, 3.0526
09-Sep-2020 10:51:17.501,-0.2297, 0.9800, 0.0130,-0.0281, 0.0351, 0.0550,-1.4994,-1.3874, 3.0514
09-Sep-2020 10:51:17.510,-0.2309, 0.9768, 0.0105,-0.0273, 0.0090, 0.0468,-1.5001,-1.3880, 3.0503
09-Sep-2020 10:51:17.520,-0.2284, 0.9750, 0.0100,-0.0249,-0.0129, 0.0440,-1.5011,-1.3885, 3.0493
09-Sep-2020 10:51:17.530,-0.2223, 0.9745, 0.0071,-0.0237,-0.0278, 0.0383,-1.5022,-1.3890, 3.0483
09-Sep-2020 10:51:17.541,-0.2119, 0.9771, 0.0049,-0.0264,-0.0349, 0.0302,-1.5035,-1.3894, 3.0473
09-Sep-2020 10:51:17.551,-0.1980, 0.9817, 0.0077,-0.0268,-0.0337, 0.0322,-1.5050,-1.3897, 3.0461
09-Sep-2020 10:51:17.560,-0.1892, 0.9872, 0.0122,-0.0264,-0.0335, 0.0362,-1.5066,-1.3901, 3.0448
09-Sep-2020 10:51:17.570,-0.1873, 0.9908, 0.0167,-0.0271,-0.0369, 0.0400,-1.5081,-1.3905, 3.0436
09-Sep-2020 10:51:17.580,-0.1880, 0.9915, 0.0239,-0.0256,-0.0480, 0.0439,-1.5098,-1.3909, 3.0423
09-Sep-2020 10:51:17.590,-0.1904, 0.9879, 0.0275,-0.0287,-0.0725, 0.0492,-1.5115,-1.3913, 3.0411
09-Sep-2020 10:51:17.600,-0.1874, 0.9830, 0.0278,-0.0284,-0.1028, 0.0547,-1.5136,-1.3918, 3.0397
09-Sep-2020 10:51:17.610,-0.1845, 0.9794, 0.0282,-0.0202,-0.1203, 0.0581,-1.5160,-1.3923, 3.0383
09-Sep-2020 10:51:17.620,-0.1826, 0.9778, 0.0288,-0.0174,-0.1214, 0.0677,-1.5182,-1.3929, 3.0373
09-Sep-2020 10:51:17.630,-0.1825, 0.9790, 0.0303,-0.0085,-0.1108, 0.0677,-1.5201,-1.3936, 3.0367
09-Sep-2020 10:51:17.641,-0.1819, 0.9805, 0.0325,-0.0041,-0.0979, 0.0688,-1.5213,-1.3943, 3.0366
09-Sep-2020 10:51:17.650,-0.1826, 0.9788, 0.0348,-0.0026,-0.0936, 0.0665,-1.5222,-1.3950, 3.0366
09-Sep-2020 10:51:17.660,-0.1824, 0.9754, 0.0349,-0.0048,-0.0945, 0.0658,-1.5231,-1.3957, 3.0367
09-Sep-2020 10:51:17.670,-0.1813, 0.9732, 0.0333,-0.0104,-0.1037, 0.0635,-1.5241,-1.3964, 3.0366
09-Sep-2020 10:51:17.680,-0.1794, 0.9725, 0.0320,-0.0142,-0.1143, 0.0624,-1.5257,-1.3971, 3.0361
09-Sep-2020 10:51:17.690,-0.1778, 0.9741, 0.0310,-0.0128,-0.1179, 0.0594,-1.5276,-1.3978, 3.0354
09-Sep-2020 10:51:17.700,-0.1760, 0.9730, 0.0284,-0.0091,-0.1205, 0.0570,-1.5294,-1.3984, 3.0347
09-Sep-2020 10:51:17.710,-0.1754, 0.9702, 0.0244,-0.0090,-0.1239, 0.0533,-1.5312,-1.3991, 3.0341
09-Sep-2020 10:51:17.720,-0.1733, 0.9660, 0.0191,-0.0044,-0.1346, 0.0485,-1.5329,-1.3997, 3.0336
09-Sep-2020 10:51:17.729,-0.1705, 0.9647, 0.0137,-0.0002,-0.1422, 0.0462,-1.5346,-1.4002, 3.0334
09-Sep-2020 10:51:17.740,-0.1644, 0.9640, 0.0083, 0.0084,-0.1308, 0.0416,-1.5360,-1.4007, 3.0333
09-Sep-2020 10:51:17.749,-0.1603, 0.9659, 0.0031, 0.0104,-0.1127, 0.0380,-1.5369,-1.4012, 3.0337
09-Sep-2020 10:51:17.759,-0.1576, 0.9669,-0.0001, 0.0222,-0.0875, 0.0321,-1.5374,-1.4016, 3.0343
09-Sep-2020 10:51:17.769,-0.1571, 0.9677,-0.0009, 0.0386,-0.0593, 0.0299,-1.5371,-1.4020, 3.0356
09-Sep-2020 10:51:17.780,-0.1578, 0.9688, 0.0010, 0.0467,-0.0316, 0.0223,-1.5355,-1.4023, 3.0379
09-Sep-2020 10:51:17.789,-0.1595, 0.9710, 0.0047, 0.0609,-0.0055, 0.0182,-1.5330,-1.4026, 3.0407
09-Sep-2020 10:51:17.799,-0.1609, 0.9731, 0.0081, 0.0648, 0.0191, 0.0051,-1.5295,-1.4028, 3.0443
09-Sep-2020 10:51:17.809,-0.1615, 0.9762, 0.0120, 0.0671, 0.0372, 0.0018,-1.5256,-1.4029, 3.0482
09-Sep-2020 10:51:17.819,-0.1626, 0.9796, 0.0130, 0.0658, 0.0373,-0.0036,-1.5212,-1.4029, 3.0522
09-Sep-2020 10:51:17.829,-0.1638, 0.9812, 0.0118, 0.0678, 0.0354,-0.0061,-1.5169,-1.4029, 3.0562
09-Sep-2020 10:51:17.839,-0.1661, 0.9815, 0.0084, 0.0640, 0.0216,-0.0079,-1.5125,-1.4029, 3.0603
09-Sep-2020 10:51:17.849,-0.1695, 0.9819, 0.0040, 0.0624, 0.0144,-0.0123,-1.5084,-1.4029, 3.0643
09-Sep-2020 10:51:17.859,-0.1739, 0.9807,-0.0034, 0.0662, 0.0018,-0.0330,-1.5044,-1.4028, 3.0682
09-Sep-2020 10:51:17.869,-0.1695, 0.9752,-0.0055, 0.0703, 0.0125,-0.0369,-1.5004,-1.4025, 3.0723
09-Sep-2020 10:51:17.879,-0.1682, 0.9743,-0.0052, 0.0726, 0.0312,-0.0469,-1.4961,-1.4022, 3.0765
09-Sep-2020 10:51:17.889,-0.1644, 0.9698,-0.0068, 0.0716, 0.0543,-0.0560,-1.4916,-1.4017, 3.0808
09-Sep-2020 10:51:17.899,-0.1564, 0.9641,-0.0079, 0.0772, 0.0719,-0.0538,-1.4870,-1.4012, 3.0849
09-Sep-2020 10:51:17.908,-0.1524, 0.9633,-0.0040, 0.0869, 0.1020,-0.0477,-1.4820,-1.4007, 3.0892
09-Sep-2020 10:51:17.919,-0.1564, 0.9690,-0.0009, 0.0901, 0.1227,-0.0453,-1.4763,-1.4002, 3.0940
09-Sep-2020 10:51:17.928,-0.1588, 0.9730, 0.0068, 0.0780, 0.1424,-0.0440,-1.4701,-1.3997, 3.0990
09-Sep-2020 10:51:17.939,-0.1637, 0.9805, 0.0128, 0.0629, 0.1496,-0.0410,-1.4644,-1.3993, 3.1034
09-Sep-2020 10:51:17.948,-0.1654, 0.9884, 0.0136, 0.0448, 0.1383,-0.0409,-1.4595,-1.3989, 3.1070
09-Sep-2020 10:51:17.958,-0.1656, 0.9942, 0.0127, 0.0245, 0.1071,-0.0432,-1.4557,-1.3985, 3.1094
09-Sep-2020 10:51:17.968,-0.1731, 1.0047, 0.0086, 0.0143, 0.0691,-0.0336,-1.4533,-1.3981, 3.1108
09-Sep-2020 10:51:17.978,-0.1839, 1.0109, 0.0027, 0.0101, 0.0063,-0.0272,-1.4519,-1.3978, 3.1115
09-Sep-2020 10:51:17.988,-0.1926, 1.0153, 0.0011, 0.0149,-0.0457,-0.0310,-1.4512,-1.3976, 3.1122
09-Sep-2020 10:51:17.998,-0.1929, 1.0139, 0.0018, 0.0175,-0.0789,-0.0169,-1.4509,-1.3974, 3.1130
09-Sep-2020 10:51:18.008,-0.1866, 1.0093, 0.0006, 0.0165,-0.0913,-0.0058,-1.4506,-1.3973, 3.1140
09-Sep-2020 10:51:18.018,-0.1681, 1.0035,-0.0006, 0.0157,-0.0947, 0.0040,-1.4505,-1.3973, 3.1150
09-Sep-2020 10:51:18.028,-0.1398, 0.9984, 0.0032, 0.0107,-0.0929, 0.0184,-1.4506,-1.3975, 3.1160
09-Sep-2020 10:51:18.038,-0.1229, 0.9971, 0.0028, 0.0084,-0.0852, 0.0400,-1.4508,-1.3977, 3.1167
09-Sep-2020 10:51:18.048,-0.1210, 0.9983,-0.0017, 0.0106,-0.0780, 0.0578,-1.4509,-1.3982, 3.1175
09-Sep-2020 10:51:18.058,-0.1262, 0.9993,-0.0047, 0.0170,-0.0699, 0.0665,-1.4507,-1.3988, 3.1184
09-Sep-2020 10:51:18.068,-0.1360, 0.9961,-0.0040, 0.0235,-0.0488, 0.0738,-1.4500,-1.3995, 3.1199
09-Sep-2020 10:51:18.078,-0.1492, 0.9912,-0.0028, 0.0328,-0.0126, 0.0754,-1.4486,-1.4003, 3.1218
09-Sep-2020 10:51:18.088,-0.1615, 0.9875, 0.0088, 0.0560, 0.0470, 0.0757,-1.4462,-1.4010, 3.1244
09-Sep-2020 10:51:18.098,-0.1693, 0.9901, 0.0282, 0.0958, 0.1079, 0.0656,-1.4418,-1.4017, 3.1283
09-Sep-2020 10:51:18.108,-0.1734, 1.0009, 0.0538, 0.1337, 0.1411, 0.0564,-1.4346,-1.4023, 3.1346
09-Sep-2020 10:51:18.118,-0.1744, 1.0145, 0.0866, 0.1721, 0.1572, 0.0462,-1.4249,-1.4028,-3.1401
09-Sep-2020 10:51:18.128,-0.1674, 1.0240, 0.1133, 0.1946, 0.1261, 0.0350,-1.4128,-1.4031,-3.1295
09-Sep-2020 10:51:18.137,-0.1503, 1.0273, 0.1267, 0.1775, 0.0299, 0.0353,-1.4000,-1.4033,-3.1177
09-Sep-2020 10:51:18.148,-0.1329, 1.0294, 0.1267, 0.1298,-0.0905, 0.0399,-1.3890,-1.4035,-3.1067
09-Sep-2020 10:51:18.157,-0.1260, 1.0296, 0.0964, 0.0813,-0.1940, 0.0455,-1.3817,-1.4038,-3.0984
09-Sep-2020 10:51:18.167,-0.1332, 1.0316, 0.0440, 0.0539,-0.2552, 0.0252,-1.3782,-1.4041,-3.0929
09-Sep-2020 10:51:18.177,-0.1371, 1.0340,-0.0065, 0.0475,-0.2696, 0.0083,-1.3771,-1.4044,-3.0893
09-Sep-2020 10:51:18.188,-0.1419, 1.0249,-0.0416, 0.0493,-0.2127, 0.0048,-1.3770,-1.4044,-3.0864
09-Sep-2020 10:51:18.197,-0.1500, 1.0100,-0.0702, 0.0759,-0.0962, 0.0029,-1.3763,-1.4045,-3.0836
09-Sep-2020 10:51:18.207,-0.1624, 0.9956,-0.0842, 0.1676, 0.0702,-0.0128,-1.3728,-1.4044,-3.0791
09-Sep-2020 10:51:18.217,-0.1623, 0.9703,-0.0775, 0.2406, 0.2209,-0.0367,-1.3656,-1.4041,-3.0724
09-Sep-2020 10:51:18.227,-0.1521, 0.9376,-0.0604, 0.2687, 0.3065,-0.0477,-1.3553,-1.4036,-3.0640
09-Sep-2020 10:51:18.237,-0.1196, 0.8931,-0.0387, 0.2213, 0.3202,-0.0310,-1.3436,-1.4030,-3.0550
09-Sep-2020 10:51:18.247,-0.0796, 0.8545,-0.0090, 0.1231, 0.2700, 0.0177,-1.3336,-1.4028,-3.0479
09-Sep-2020 10:51:18.257,-0.0454, 0.8490, 0.0115, 0.0324, 0.1922, 0.0690,-1.3254,-1.4030,-3.0422
09-Sep-2020 10:51:18.267,-0.0222, 0.8833, 0.0062, 0.0095, 0.1170, 0.1104,-1.3204,-1.4037,-3.0391
09-Sep-2020 10:51:18.277,-0.0077, 0.9372,-0.0152, 0.0717, 0.1090, 0.1502,-1.3164,-1.4048,-3.0363
09-Sep-2020 10:51:18.287, 0.0030, 0.9757,-0.0324, 0.1699, 0.1687, 0.1958,-1.3082,-1.4062,-3.0290
09-Sep-2020 10:51:18.297, 0.0072, 0.9861,-0.0394, 0.2230, 0.2356, 0.2341,-1.2930,-1.4077,-3.0154
09-Sep-2020 10:51:18.307, 0.0031, 0.9733,-0.0415, 0.2073, 0.2733, 0.2622,-1.2734,-1.4093,-2.9978
09-Sep-2020 10:51:18.316,-0.0112, 0.9577,-0.0430, 0.1681, 0.2704, 0.2694,-1.2534,-1.4112,-2.9803
09-Sep-2020 10:51:18.327,-0.0317, 0.9582,-0.0442, 0.1440, 0.2623, 0.2653,-1.2351,-1.4133,-2.9644
09-Sep-2020 10:51:18.337,-0.0616, 0.9705,-0.0497, 0.1571, 0.2541, 0.2621,-1.2178,-1.4153,-2.9496
09-Sep-2020 10:51:18.346,-0.1009, 0.9822,-0.0580, 0.2155, 0.2068, 0.2547,-1.1995,-1.4172,-2.9335
09-Sep-2020 10:51:18.356,-0.1454, 0.9911,-0.0509, 0.2818, 0.1112, 0.2417,-1.1780,-1.4188,-2.9139
09-Sep-2020 10:51:18.366,-0.1827, 1.0008,-0.0204, 0.3115, 0.0085, 0.2371,-1.1535,-1.4200,-2.8902
09-Sep-2020 10:51:18.376,-0.2074, 0.9996, 0.0165, 0.2663,-0.1011, 0.2477,-1.1282,-1.4210,-2.8647
09-Sep-2020 10:51:18.386,-0.2248, 0.9812, 0.0457, 0.1901,-0.1965, 0.2788,-1.1059,-1.4221,-2.8410
09-Sep-2020 10:51:18.396,-0.2350, 0.9589, 0.0474, 0.1288,-0.2945, 0.3122,-1.0875,-1.4237,-2.8205
09-Sep-2020 10:51:18.406,-0.2387, 0.9485, 0.0298, 0.0821,-0.4038, 0.3211,-1.0724,-1.4259,-2.8022
09-Sep-2020 10:51:18.416,-0.2442, 0.9480, 0.0235, 0.0339,-0.5001, 0.2748,-1.0606,-1.4283,-2.7862
09-Sep-2020 10:51:18.426,-0.2545, 0.9483, 0.0264,-0.0317,-0.5715, 0.1815,-1.0538,-1.4306,-2.7742
09-Sep-2020 10:51:18.436,-0.2605, 0.9401, 0.0313,-0.1088,-0.5800, 0.0725,-1.0545,-1.4324,-2.7693
09-Sep-2020 10:51:18.446,-0.2431, 0.9282, 0.0086,-0.2079,-0.5804,-0.0322,-1.0643,-1.4336,-2.7733
09-Sep-2020 10:51:18.456,-0.2057, 0.9430,-0.0256,-0.2870,-0.5239,-0.1640,-1.0839,-1.4343,-2.7874
09-Sep-2020 10:51:18.466,-0.1449, 0.9677,-0.0566,-0.3267,-0.3806,-0.2783,-1.1123,-1.4342,-2.8108
09-Sep-2020 10:51:18.476,-0.0809, 0.9756,-0.0843,-0.3851,-0.1980,-0.3227,-1.1455,-1.4332,-2.8405
09-Sep-2020 10:51:18.486,-0.0332, 0.9782,-0.1007,-0.4684,-0.0057,-0.2968,-1.1814,-1.4319,-2.8748
09-Sep-2020 10:51:18.496, 0.0000, 1.0072,-0.1182,-0.5555, 0.1672,-0.2419,-1.2197,-1.4309,-2.9134
09-Sep-2020 10:51:18.506, 0.0216, 1.0599,-0.1446,-0.6058, 0.3069,-0.1906,-1.2602,-1.4304,-2.9558
09-Sep-2020 10:51:18.516, 0.0350, 1.1109,-0.1718,-0.5929, 0.4094,-0.1487,-1.3012,-1.4304,-3.0003
09-Sep-2020 10:51:18.525, 0.0567, 1.1519,-0.1936,-0.5190, 0.4867,-0.0989,-1.3395,-1.4305,-3.0431
09-Sep-2020 10:51:18.536, 0.0687, 1.1745,-0.2229,-0.3965, 0.4925,-0.0711,-1.3714,-1.4307,-3.0801
09-Sep-2020 10:51:18.546, 0.0656, 1.1314,-0.2509,-0.2266, 0.3772,-0.0682,-1.3944,-1.4307,-3.1082
09-Sep-2020 10:51:18.556, 0.0588, 1.0349,-0.2666,-0.0416, 0.1776,-0.0766,-1.4068,-1.4305,-3.1244
09-Sep-2020 10:51:18.566, 0.0415, 0.9494,-0.2629, 0.1459,-0.0242,-0.0326,-1.4084,-1.4299,-3.1278
09-Sep-2020 10:51:18.575,-0.0089, 0.9156,-0.2460, 0.3290,-0.1356, 0.0238,-1.3986,-1.4294,-3.1177
09-Sep-2020 10:51:18.585,-0.0600, 0.9145,-0.2262, 0.5127,-0.1671, 0.0536,-1.3767,-1.4291,-3.0943
09-Sep-2020 10:51:18.595,-0.0957, 0.9198,-0.2208, 0.7171,-0.1767, 0.0654,-1.3421,-1.4286,-3.0577
09-Sep-2020 10:51:18.606,-0.1318, 0.9236,-0.1938, 0.9312,-0.1505, 0.0640,-1.2942,-1.4275,-3.0075
09-Sep-2020 10:51:18.616,-0.1634, 0.9198,-0.1339, 1.1200,-0.0482, 0.0512,-1.2333,-1.4254,-2.9445
09-Sep-2020 10:51:18.625,-0.2124, 0.9097, 0.0349, 1.1267, 0.1478, 0.0025,-1.1628,-1.4218,-2.8728
09-Sep-2020 10:51:18.635,-0.2842, 0.8560, 0.4425, 0.5924, 0.2300,-0.0879,-1.0968,-1.4173,-2.8075
09-Sep-2020 10:51:18.645,-0.2894, 0.9265, 0.5846, 0.0107, 0.1064,-0.1616,-1.0638,-1.4138,-2.7762
09-Sep-2020 10:51:18.655,-0.1884, 1.0956, 0.2840,-0.1298,-0.1443,-0.1566,-1.0648,-1.4122,-2.7782
09-Sep-2020 10:51:18.665,-0.0650, 1.1255, 0.0298,-0.1069,-0.5008,-0.1275,-1.0771,-1.4115,-2.7892
09-Sep-2020 10:51:18.675, 0.0238, 1.0712,-0.0697,-0.1071,-0.7369,-0.0961,-1.0914,-1.4110,-2.7986
09-Sep-2020 10:51:18.685, 0.0670, 1.0264,-0.0841,-0.0858,-0.6558,-0.0255,-1.1065,-1.4107,-2.8067
09-Sep-2020 10:51:18.695, 0.0923, 0.9787,-0.0791,-0.0311,-0.3791, 0.0372,-1.1177,-1.4109,-2.8116
09-Sep-2020 10:51:18.705, 0.1037, 0.9568,-0.0782, 0.0160,-0.0939, 0.0387,-1.1220,-1.4113,-2.8121
09-Sep-2020 10:51:18.715, 0.1017, 0.9626,-0.0892, 0.0720, 0.1212,-0.0300,-1.1207,-1.4116,-2.8098
09-Sep-2020 10:51:18.725, 0.0916, 0.9764,-0.0957, 0.1521, 0.2823,-0.1429,-1.1159,-1.4111,-2.8061
09-Sep-2020 10:51:18.735, 0.0773, 0.9864,-0.0853, 0.2122, 0.3933,-0.2704,-1.1084,-1.4092,-2.8013
09-Sep-2020 10:51:18.745, 0.0657, 0.9833,-0.0712, 0.2263, 0.4349,-0.3896,-1.1002,-1.4059,-2.7969
09-Sep-2020 10:51:18.754, 0.0531, 0.9721,-0.0536, 0.2270, 0.4611,-0.4582,-1.0941,-1.4015,-2.7951
09-Sep-2020 10:51:18.764, 0.0346, 0.9717,-0.0472, 0.2425, 0.4904,-0.4595,-1.0896,-1.3965,-2.7952
09-Sep-2020 10:51:18.774, 0.0145, 0.9758,-0.0492, 0.2799, 0.4993,-0.4279,-1.0842,-1.3914,-2.7947
09-Sep-2020 10:51:18.784,-0.0043, 0.9867,-0.0475, 0.3246, 0.4739,-0.3963,-1.0764,-1.3864,-2.7917
09-Sep-2020 10:51:18.794,-0.0266, 0.9886,-0.0367, 0.3730, 0.4570,-0.3900,-1.0664,-1.3814,-2.7863
09-Sep-2020 10:51:18.804,-0.0625, 0.9893,-0.0094, 0.4117, 0.4808,-0.4110,-1.0547,-1.3763,-2.7791
09-Sep-2020 10:51:18.814,-0.1171, 0.9976, 0.0217, 0.4158, 0.5165,-0.4596,-1.0422,-1.3707,-2.7712
09-Sep-2020 10:51:18.824,-0.1543, 1.0064, 0.0231, 0.3619, 0.4731,-0.5092,-1.0310,-1.3648,-2.7650
09-Sep-2020 10:51:18.835,-0.1784, 1.0186,-0.0105, 0.2799, 0.3238,-0.5660,-1.0240,-1.3586,-2.7625
09-Sep-2020 10:51:18.844,-0.1799, 1.0203,-0.0641, 0.2004, 0.0457,-0.6120,-1.0231,-1.3524,-2.7648
09-Sep-2020 10:51:18.854,-0.1617, 1.0120,-0.1011, 0.1355,-0.2934,-0.6144,-1.0288,-1.3462,-2.7711
09-Sep-2020 10:51:18.864,-0.1455, 1.0059,-0.1152, 0.0879,-0.6114,-0.5770,-1.0399,-1.3403,-2.7794
09-Sep-2020 10:51:18.874,-0.1254, 1.0078,-0.1105, 0.0439,-0.8408,-0.5068,-1.0544,-1.3350,-2.7882
09-Sep-2020 10:51:18.884,-0.1104, 1.0324,-0.1054, 0.0080,-0.9409,-0.4363,-1.0710,-1.3304,-2.7967
09-Sep-2020 10:51:18.894,-0.0824, 1.0806,-0.1173,-0.0065,-0.9771,-0.4055,-1.0881,-1.3266,-2.8047
09-Sep-2020 10:51:18.904,-0.0332, 1.1225,-0.1313,-0.0027,-1.0158,-0.3641,-1.1051,-1.3231,-2.8122
09-Sep-2020 10:51:18.914, 0.0245, 1.1646,-0.1131,-0.0179,-1.0148,-0.2763,-1.1213,-1.3199,-2.8185
09-Sep-2020 10:51:18.924, 0.0746, 1.1962,-0.0801,-0.0612,-0.9671,-0.1620,-1.1364,-1.3176,-2.8237
09-Sep-2020 10:51:18.934, 0.1300, 1.2040,-0.0501,-0.1417,-0.9467,-0.0134,-1.1506,-1.3164,-2.8284
09-Sep-2020 10:51:18.944, 0.1824, 1.2030,-0.0210,-0.2270,-0.9755, 0.1371,-1.1650,-1.3169,-2.8335
09-Sep-2020 10:51:18.954, 0.2442, 1.1950, 0.0033,-0.2912,-1.0226, 0.3015,-1.1805,-1.3191,-2.8394
09-Sep-2020 10:51:18.963, 0.3112, 1.1875, 0.0012,-0.3147,-1.0607, 0.5015,-1.1965,-1.3230,-2.8454
09-Sep-2020 10:51:18.974, 0.3676, 1.1825,-0.0174,-0.3084,-1.0276, 0.7179,-1.2112,-1.3289,-2.8498
09-Sep-2020 10:51:18.983, 0.4138, 1.1699,-0.0405,-0.3053,-0.8784, 0.9597,-1.2228,-1.3367,-2.8512
09-Sep-2020 10:51:18.993, 0.4560, 1.1560,-0.0755,-0.3311,-0.6381, 1.2240,-1.2297,-1.3468,-2.8494
09-Sep-2020 10:51:19.003, 0.4959, 1.1687,-0.1108,-0.3934,-0.3585, 1.4993,-1.2316,-1.3595,-2.8448
09-Sep-2020 10:51:19.013, 0.5464, 1.2001,-0.1128,-0.4613,-0.0136, 1.8068,-1.2285,-1.3749,-2.8381
09-Sep-2020 10:51:19.023, 0.5952, 1.2231,-0.0801,-0.5015, 0.3702, 2.1444,-1.2186,-1.3935,-2.8279
09-Sep-2020 10:51:19.033, 0.6122, 1.2047, 0.0200,-0.5045, 0.7747, 2.4814,-1.1970,-1.4152,-2.8098
09-Sep-2020 10:51:19.043, 0.6039, 1.1475, 0.1533,-0.5498, 1.1077, 2.7303,-1.1556,-1.4400,-2.7757
09-Sep-2020 10:51:19.053, 0.5640, 1.0759, 0.2244,-0.6650, 1.1285, 2.8334,-1.0867,-1.4668,-2.7171
