Timestamp,accelX,accelY,accelZ,gyroX(rad/s),gyroY(rad/s),gyroZ(rad/s),Roll(rads),Pitch(rads),Yaw(rads)
09-Sep-2020 11:14:19.866, 0.1120,-0.4082,-1.1630, 0.4177, 0.4500, 0.2528, 0.1372, 0.3125, 0.8885
09-Sep-2020 11:14:19.876, 0.1439,-0.4432,-1.2101, 0.6252, 0.6174, 0.2842, 0.1411, 0.3171, 0.8906
09-Sep-2020 11:14:19.886, 0.1814,-0.4266,-1.2442, 0.8489, 0.7518, 0.3117, 0.1466, 0.3237, 0.8927
09-Sep-2020 11:14:19.896, 0.1873,-0.3957,-1.2364, 0.9491, 0.7698, 0.3146, 0.1533, 0.3325, 0.8947
09-Sep-2020 11:14:19.906, 0.2083,-0.3780,-1.1927, 0.8676, 0.6928, 0.3497, 0.1603, 0.3423, 0.8965
09-Sep-2020 11:14:19.917, 0.2289,-0.4097,-1.1881, 0.6301, 0.5679, 0.3286, 0.1664, 0.3513, 0.8987
09-Sep-2020 11:14:19.926, 0.2305,-0.4728,-1.1783, 0.2940, 0.3312, 0.3152, 0.1712, 0.3580, 0.9011
09-Sep-2020 11:14:19.936, 0.2542,-0.4957,-1.1953, 0.0028,-0.1802, 0.4282, 0.1732, 0.3615, 0.9040
09-Sep-2020 11:14:19.946, 0.2744,-0.4781,-1.2555,-0.1205,-0.8167, 0.5944, 0.1697, 0.3624, 0.9086
09-Sep-2020 11:14:19.956, 0.2835,-0.4132,-1.3076,-0.0492,-1.4905, 0.7150, 0.1592, 0.3624, 0.9151
09-Sep-2020 11:14:19.966, 0.2684,-0.2881,-1.2778, 0.1553,-1.9565, 0.7286, 0.1419, 0.3631, 0.9227
09-Sep-2020 11:14:19.976, 0.1954,-0.1445,-1.1956, 0.3962,-2.1124, 0.5733, 0.1199, 0.3656, 0.9301
09-Sep-2020 11:14:19.986, 0.1067,-0.1759,-1.0961, 0.5307,-2.0564, 0.4286, 0.0969, 0.3701, 0.9358
09-Sep-2020 11:14:19.996, 0.0876,-0.2807,-0.9245, 0.5630,-1.7149, 0.4158, 0.0751, 0.3757, 0.9400
09-Sep-2020 11:14:20.006, 0.0382,-0.3507,-0.7785, 0.5992,-1.4127, 0.4321, 0.0565, 0.3816, 0.9442
09-Sep-2020 11:14:20.016,-0.0250,-0.3364,-0.7516, 0.7027,-1.5638, 0.4663, 0.0404, 0.3879, 0.9485
09-Sep-2020 11:14:20.026,-0.0540,-0.3263,-0.8402, 0.8642,-1.5672, 0.5832, 0.0232, 0.3951, 0.9535
09-Sep-2020 11:14:20.036,-0.0114,-0.3722,-0.9116, 1.0780,-1.5300, 0.7729, 0.0050, 0.4038, 0.9598
09-Sep-2020 11:14:20.046,-0.0521,-0.3536,-0.8443, 1.4321,-1.3024, 0.8148,-0.0136, 0.4146, 0.9683
09-Sep-2020 11:14:20.056,-0.1235,-0.1385,-0.5706, 2.1103,-0.2398, 0.2122,-0.0295, 0.4290, 0.9770
09-Sep-2020 11:14:20.066,-0.1730,-0.0286,-0.4690, 2.5122, 0.1713,-0.6397,-0.0336, 0.4498, 0.9800
09-Sep-2020 11:14:20.076,-0.1120,-0.1609,-0.5993, 2.4637,-0.1388,-1.2942,-0.0297, 0.4747, 0.9740
09-Sep-2020 11:14:20.085,-0.0327,-0.3322,-0.6378, 2.0374,-0.6756,-1.6721,-0.0250, 0.4994, 0.9605
09-Sep-2020 11:14:20.096, 0.0386,-0.4778,-0.6392, 1.4249,-0.9955,-1.8144,-0.0226, 0.5200, 0.9422
09-Sep-2020 11:14:20.106, 0.1549,-0.6203,-0.6029, 0.5372,-0.9003,-1.6738,-0.0221, 0.5345, 0.9219
09-Sep-2020 11:14:20.115, 0.2446,-0.7744,-0.2260,-1.4478, 0.5361,-1.2242,-0.0205, 0.5392, 0.9030
09-Sep-2020 11:14:20.125, 0.3335,-0.6929,-0.0152,-2.1865, 2.5072,-0.7974,-0.0075, 0.5262, 0.8887
09-Sep-2020 11:14:20.135, 0.4142,-0.5241,-0.4256,-2.4532, 3.5778,-0.4180, 0.0214, 0.5046, 0.8798
09-Sep-2020 11:14:20.145, 0.4481,-0.4858,-0.7671,-2.3990, 3.4953,-0.0569, 0.0578, 0.4803, 0.8762
09-Sep-2020 11:14:20.155, 0.5189,-0.4777,-1.1914,-1.9115, 2.7370, 0.3275, 0.0916, 0.4568, 0.8777
09-Sep-2020 11:14:20.165, 0.5252,-0.3749,-1.4119,-1.2710, 1.6170, 0.6429, 0.1161, 0.4384, 0.8834
09-Sep-2020 11:14:20.175, 0.4005,-0.2433,-1.3086,-1.0427, 0.9493, 0.8504, 0.1290, 0.4263, 0.8923
09-Sep-2020 11:14:20.185, 0.2235,-0.1758,-1.0898,-0.8574, 0.4917, 0.9053, 0.1342, 0.4171, 0.9030
09-Sep-2020 11:14:20.196, 0.1042,-0.1444,-0.9366,-0.6805, 0.2689, 0.7239, 0.1348, 0.4099, 0.9139
09-Sep-2020 11:14:20.205, 0.0610,-0.1528,-0.8367,-0.4575, 0.1724, 0.5257, 0.1341, 0.4043, 0.9227
09-Sep-2020 11:14:20.215, 0.0869,-0.2716,-0.7928,-0.2454, 0.0388, 0.5103, 0.1332, 0.4005, 0.9292
09-Sep-2020 11:14:20.225, 0.1058,-0.3808,-0.7610,-0.1506,-0.1768, 0.6710, 0.1312, 0.3988, 0.9352
09-Sep-2020 11:14:20.235, 0.0764,-0.4262,-0.7087,-0.1848,-0.2808, 0.8217, 0.1266, 0.3981, 0.9427
09-Sep-2020 11:14:20.245, 0.0058,-0.4360,-0.6513,-0.2741,-0.1746, 0.8578, 0.1204, 0.3973, 0.9517
09-Sep-2020 11:14:20.255,-0.0778,-0.4159,-0.6173,-0.3758, 0.0950, 0.7991, 0.1151, 0.3956, 0.9613
09-Sep-2020 11:14:20.265,-0.1156,-0.3933,-0.6628,-0.4439, 0.3565, 0.6992, 0.1125, 0.3928, 0.9703
09-Sep-2020 11:14:20.275,-0.1399,-0.3464,-0.7106,-0.4876, 0.4457, 0.5396, 0.1129, 0.3893, 0.9783
09-Sep-2020 11:14:20.285,-0.1288,-0.3171,-0.7434,-0.5166, 0.3061, 0.3896, 0.1147, 0.3851, 0.9848
09-Sep-2020 11:14:20.295,-0.0655,-0.3161,-0.7578,-0.4887, 0.1453, 0.3501, 0.1159, 0.3806, 0.9897
09-Sep-2020 11:14:20.305,-0.0024,-0.3414,-0.7707,-0.4774,-0.1268, 0.3362, 0.1156, 0.3762, 0.9941
09-Sep-2020 11:14:20.315, 0.0090,-0.4150,-0.7744,-0.5695,-0.5798, 0.3920, 0.1127, 0.3718, 0.9984
09-Sep-2020 11:14:20.325, 0.0117,-0.4636,-0.7302,-0.7742,-1.0384, 0.4869, 0.1051, 0.3666, 1.0033
09-Sep-2020 11:14:20.335,-0.0157,-0.5139,-0.7255,-1.0849,-1.3762, 0.5479, 0.0927, 0.3594, 1.0093
09-Sep-2020 11:14:20.345,-0.0864,-0.5102,-0.7523,-1.3554,-1.4273, 0.5122, 0.0768, 0.3492, 1.0161
09-Sep-2020 11:14:20.355,-0.1720,-0.4278,-0.7743,-1.4870,-1.1709, 0.4117, 0.0606, 0.3362, 1.0225
09-Sep-2020 11:14:20.364,-0.2549,-0.3222,-0.7981,-1.5092,-0.5774, 0.1625, 0.0476, 0.3217, 1.0276
09-Sep-2020 11:14:20.374,-0.3070,-0.2162,-0.7834,-1.5016, 0.0294,-0.2644, 0.0411, 0.3068, 1.0299
09-Sep-2020 11:14:20.384,-0.2456,-0.1832,-0.7872,-1.4955, 0.3431,-0.6103, 0.0418, 0.2918, 1.0280
09-Sep-2020 11:14:20.394,-0.1475,-0.2346,-0.8242,-1.5410, 0.3816,-0.7548, 0.0465, 0.2767, 1.0225
09-Sep-2020 11:14:20.404,-0.0320,-0.2593,-0.8621,-1.6320, 0.1730,-0.7810, 0.0520, 0.2610, 1.0157
09-Sep-2020 11:14:20.414, 0.0833,-0.3338,-0.9564,-1.7408,-0.2375,-0.6946, 0.0553, 0.2444, 1.0087
09-Sep-2020 11:14:20.424, 0.1271,-0.3475,-1.0623,-1.7973,-0.6890,-0.5296, 0.0543, 0.2268, 1.0027
09-Sep-2020 11:14:20.434, 0.1073,-0.2578,-1.1074,-1.7601,-1.0252,-0.4115, 0.0485, 0.2088, 0.9983
09-Sep-2020 11:14:20.444, 0.0681,-0.1688,-1.1205,-1.6337,-1.1991,-0.3877, 0.0390, 0.1912, 0.9949
09-Sep-2020 11:14:20.454, 0.0462,-0.1391,-1.1314,-1.4636,-1.2382,-0.3796, 0.0278, 0.1749, 0.9916
09-Sep-2020 11:14:20.464, 0.0463,-0.1434,-1.1086,-1.3004,-1.1481,-0.3445, 0.0161, 0.1603, 0.9882
09-Sep-2020 11:14:20.474, 0.0550,-0.1527,-1.0730,-1.2058,-1.0367,-0.2824, 0.0052, 0.1473, 0.9849
09-Sep-2020 11:14:20.484, 0.0475,-0.2261,-1.0656,-1.2522,-0.9178,-0.1829,-0.0048, 0.1352, 0.9822
09-Sep-2020 11:14:20.494,-0.0025,-0.3135,-1.0581,-1.4100,-0.6639,-0.1452,-0.0136, 0.1227, 0.9803
09-Sep-2020 11:14:20.504,-0.0868,-0.2932,-1.0523,-1.5157,-0.3593,-0.3123,-0.0199, 0.1088, 0.9785
09-Sep-2020 11:14:20.514,-0.1639,-0.2072,-1.1138,-1.5155,-0.2172,-0.5452,-0.0233, 0.0939, 0.9751
09-Sep-2020 11:14:20.524,-0.1880,-0.1068,-1.1654,-1.5323,-0.1829,-0.7846,-0.0250, 0.0790, 0.9693
09-Sep-2020 11:14:20.534,-0.1218,-0.0293,-1.1937,-1.5818,-0.2088,-0.9381,-0.0263, 0.0639, 0.9612
09-Sep-2020 11:14:20.544, 0.0107, 0.0017,-1.2478,-1.6326,-0.3997,-0.9786,-0.0280, 0.0485, 0.9516
09-Sep-2020 11:14:20.554, 0.1363, 0.0569,-1.3458,-1.6316,-0.7763,-0.9072,-0.0317, 0.0326, 0.9415
09-Sep-2020 11:14:20.563, 0.2387, 0.0469,-1.4309,-1.5065,-1.1387,-0.6874,-0.0392, 0.0168, 0.9320
09-Sep-2020 11:14:20.573, 0.2999, 0.0143,-1.4726,-1.2823,-1.4907,-0.3034,-0.0505, 0.0022, 0.9247
09-Sep-2020 11:14:20.583, 0.2913,-0.0056,-1.4450,-1.0352,-1.8552, 0.1471,-0.0653,-0.0103, 0.9211
09-Sep-2020 11:14:20.593, 0.2052,-0.0061,-1.3396,-0.8219,-2.1892, 0.5038,-0.0838,-0.0207, 0.9218
09-Sep-2020 11:14:20.603, 0.0950, 0.0154,-1.2270,-0.6906,-2.4366, 0.7181,-0.1055,-0.0293, 0.9261
09-Sep-2020 11:14:20.614,-0.0188, 0.0535,-1.0287,-0.6997,-2.1968, 0.7719,-0.1292,-0.0370, 0.9323
09-Sep-2020 11:14:20.623,-0.1082, 0.0990,-0.8477,-0.8038,-1.6512, 0.6878,-0.1506,-0.0450, 0.9390
09-Sep-2020 11:14:20.633,-0.1948, 0.1349,-0.7984,-0.8982,-1.1201, 0.5327,-0.1668,-0.0540, 0.9445
09-Sep-2020 11:14:20.643,-0.2374, 0.1145,-0.7749,-0.9147,-0.5805, 0.4220,-0.1777,-0.0636, 0.9483
09-Sep-2020 11:14:20.653,-0.2263, 0.0552,-0.7371,-0.9264,-0.2056, 0.3383,-0.1834,-0.0733, 0.9509
09-Sep-2020 11:14:20.663,-0.1949, 0.0340,-0.7422,-1.0335,-0.2314, 0.2343,-0.1856,-0.0830, 0.9526
09-Sep-2020 11:14:20.673,-0.1993, 0.0626,-0.7655,-1.3139,-0.6667, 0.1548,-0.1882,-0.0937, 0.9530
09-Sep-2020 11:14:20.683,-0.2336, 0.1126,-0.7453,-1.7011,-1.1229, 0.0986,-0.1949,-0.1069, 0.9521
09-Sep-2020 11:14:20.693,-0.2684, 0.1544,-0.7383,-2.0538,-1.4647, 0.0211,-0.2063,-0.1236, 0.9497
09-Sep-2020 11:14:20.703,-0.3156, 0.1830,-0.7863,-2.2441,-1.6841,-0.0644,-0.2214,-0.1435, 0.9456
09-Sep-2020 11:14:20.713,-0.3180, 0.1501,-0.8359,-2.2131,-1.7766,-0.0960,-0.2389,-0.1649, 0.9400
09-Sep-2020 11:14:20.723,-0.3339, 0.2050,-0.8502,-2.0685,-1.8630,-0.1070,-0.2577,-0.1859, 0.9337
09-Sep-2020 11:14:20.733,-0.3396, 0.2917,-0.8846,-1.8817,-1.9174,-0.0857,-0.2775,-0.2055, 0.9272
09-Sep-2020 11:14:20.742,-0.2902, 0.4062,-0.8697,-1.6306,-1.5867,-0.0125,-0.2976,-0.2232, 0.9210
09-Sep-2020 11:14:20.753,-0.2330, 0.5369,-0.7872,-1.3471,-0.9154, 0.1294,-0.3143,-0.2386, 0.9160
09-Sep-2020 11:14:20.763,-0.2056, 0.6317,-0.7532,-1.0340,-0.1385, 0.2206,-0.3241,-0.2517, 0.9130
09-Sep-2020 11:14:20.773,-0.2269, 0.6560,-0.7636,-0.6923, 0.4490, 0.1740,-0.3259,-0.2621, 0.9117
09-Sep-2020 11:14:20.782,-0.2774, 0.5956,-0.7914,-0.3473, 0.6767, 0.0198,-0.3218,-0.2691, 0.9112
09-Sep-2020 11:14:20.792,-0.3042, 0.5137,-0.8029,-0.0980, 0.4642,-0.1775,-0.3156,-0.2725, 0.9103
09-Sep-2020 11:14:20.802,-0.2973, 0.4754,-0.8269, 0.0055,-0.1520,-0.4028,-0.3118,-0.2729, 0.9082
09-Sep-2020 11:14:20.812,-0.2557, 0.4681,-0.8829, 0.0271,-1.0285,-0.5946,-0.3146,-0.2717, 0.9044
09-Sep-2020 11:14:20.822,-0.2240, 0.4293,-0.9110, 0.0173,-1.7912,-0.6860,-0.3263,-0.2696, 0.8988
09-Sep-2020 11:14:20.833,-0.2150, 0.3797,-0.8818, 0.0579,-1.9623,-0.7325,-0.3454,-0.2671, 0.8922
09-Sep-2020 11:14:20.842,-0.1821, 0.3555,-0.8388, 0.2314,-1.5835,-0.6705,-0.3664,-0.2640, 0.8856
09-Sep-2020 11:14:20.853,-0.1497, 0.3608,-0.8216, 0.4809,-0.9116,-0.4802,-0.3833,-0.2594, 0.8802
09-Sep-2020 11:14:20.862,-0.1494, 0.3679,-0.7890, 0.7457,-0.1808,-0.2079,-0.3930,-0.2531, 0.8776
09-Sep-2020 11:14:20.872,-0.2044, 0.3843,-0.7279, 0.9177, 0.3900, 0.0337,-0.3947,-0.2455, 0.8786
09-Sep-2020 11:14:20.882,-0.2815, 0.4319,-0.6760, 0.8894, 0.6049, 0.1400,-0.3901,-0.2373, 0.8825
09-Sep-2020 11:14:20.892,-0.3385, 0.4702,-0.6692, 0.6499, 0.3405, 0.1196,-0.3833,-0.2297, 0.8872
09-Sep-2020 11:14:20.902,-0.3839, 0.4622,-0.6899, 0.2847,-0.1492, 0.0056,-0.3793,-0.2242, 0.8908
09-Sep-2020 11:14:20.912,-0.4283, 0.4280,-0.7102,-0.0627,-0.5022,-0.1668,-0.3804,-0.2216, 0.8920
09-Sep-2020 11:14:20.922,-0.4383, 0.4081,-0.7237,-0.1897,-0.5035,-0.3839,-0.3856,-0.2214, 0.8902
09-Sep-2020 11:14:20.932,-0.4061, 0.4331,-0.7426,-0.1025,-0.3163,-0.5306,-0.3914,-0.2216, 0.8861
09-Sep-2020 11:14:20.942,-0.3567, 0.4636,-0.7845, 0.0210,-0.1612,-0.5676,-0.3957,-0.2205, 0.8808
09-Sep-2020 11:14:20.951,-0.3007, 0.4677,-0.7945, 0.0435, 0.0342,-0.5493,-0.3984,-0.2181, 0.8757
09-Sep-2020 11:14:20.962,-0.2331, 0.4309,-0.7753,-0.0390, 0.3307,-0.4230,-0.3991,-0.2157, 0.8708
09-Sep-2020 11:14:20.971,-0.1911, 0.4082,-0.7481,-0.2032, 0.6626,-0.2446,-0.3966,-0.2145, 0.8667
09-Sep-2020 11:14:20.982,-0.1752, 0.3714,-0.7769,-0.3678, 0.8732,-0.0600,-0.3908,-0.2154, 0.8637
09-Sep-2020 11:14:20.991,-0.2061, 0.2997,-0.8445,-0.4040, 0.8530, 0.0874,-0.3827,-0.2185, 0.8619
09-Sep-2020 11:14:21.001,-0.3060, 0.3372,-0.8485,-0.4028, 0.6549, 0.0435,-0.3744,-0.2225, 0.8611
09-Sep-2020 11:14:21.011,-0.3796, 0.4115,-0.8574,-0.4806, 0.2567,-0.1190,-0.3682,-0.2264, 0.8600
09-Sep-2020 11:14:21.021,-0.3930, 0.3734,-0.8554,-0.6069,-0.0457,-0.2800,-0.3663,-0.2305, 0.8572
09-Sep-2020 11:14:21.031,-0.3750, 0.3365,-0.8550,-0.7074,-0.1656,-0.3797,-0.3678,-0.2351, 0.8524
09-Sep-2020 11:14:21.041,-0.3238, 0.3200,-0.8755,-0.7674,-0.0785,-0.3850,-0.3707,-0.2403, 0.8463
09-Sep-2020 11:14:21.051,-0.3454, 0.3253,-0.9776,-0.5462, 0.2405,-0.4600,-0.3729,-0.2459, 0.8399
09-Sep-2020 11:14:21.061,-0.4911, 0.3920,-1.2551, 0.0173, 0.5674,-0.5471,-0.3720,-0.2490, 0.8336
09-Sep-2020 11:14:21.071,-0.4346, 0.3521,-1.2486, 0.3869, 0.7280,-0.4255,-0.3677,-0.2471, 0.8286
09-Sep-2020 11:14:21.081,-0.3577, 0.2832,-1.0385, 0.4629, 0.9303,-0.2307,-0.3611,-0.2422, 0.8260
09-Sep-2020 11:14:21.091,-0.4381, 0.3130,-0.9238, 0.3451, 1.1593,-0.1905,-0.3519,-0.2371, 0.8253
09-Sep-2020 11:14:21.101,-0.5170, 0.3407,-0.9091, 0.1752, 1.1784,-0.2796,-0.3407,-0.2333, 0.8247
09-Sep-2020 11:14:21.111,-0.4576, 0.3306,-1.1830, 0.2539, 0.7046,-0.3828,-0.3300,-0.2304, 0.8227
09-Sep-2020 11:14:21.121,-0.2882, 0.2774,-1.0464, 0.0547, 0.4878,-0.3288,-0.3234,-0.2271, 0.8200
09-Sep-2020 11:14:21.131,-0.2594, 0.2950,-0.9833,-0.1013, 0.3136,-0.3439,-0.3192,-0.2255, 0.8170
09-Sep-2020 11:14:21.141,-0.2486, 0.3227,-1.0531,-0.0977, 0.5479,-0.3231,-0.3166,-0.2253, 0.8134
09-Sep-2020 11:14:21.151,-0.1945, 0.2854,-0.9624,-0.0643, 0.7877,-0.2479,-0.3119,-0.2252, 0.8101
09-Sep-2020 11:14:21.161,-0.1692, 0.2740,-0.9290,-0.0662, 0.8123,-0.1851,-0.3048,-0.2251, 0.8076
09-Sep-2020 11:14:21.170,-0.1271, 0.2576,-0.9133,-0.1121, 0.7013,-0.0871,-0.2972,-0.2252, 0.8057
09-Sep-2020 11:14:21.180,-0.1013, 0.2028,-0.9084,-0.1480, 0.5775, 0.0282,-0.2905,-0.2260, 0.8046
09-Sep-2020 11:14:21.190,-0.1202, 0.1629,-0.8931,-0.1584, 0.5664, 0.0967,-0.2847,-0.2274, 0.8045
09-Sep-2020 11:14:21.200,-0.1396, 0.1861,-0.8642,-0.1830, 0.6946, 0.1243,-0.2789,-0.2292, 0.8050
09-Sep-2020 11:14:21.211,-0.1609, 0.2537,-0.8499,-0.2257, 0.8100, 0.0751,-0.2719,-0.2313, 0.8058
09-Sep-2020 11:14:21.220,-0.1886, 0.2829,-0.8526,-0.2450, 0.9517, 0.0260,-0.2637,-0.2336, 0.8060
09-Sep-2020 11:14:21.230,-0.1993, 0.2629,-0.8883,-0.2978, 1.0000,-0.0468,-0.2544,-0.2360, 0.8057
09-Sep-2020 11:14:21.240,-0.2392, 0.3251,-0.9852,-0.3005, 0.9579,-0.2319,-0.2448,-0.2388, 0.8045
09-Sep-2020 11:14:21.250,-0.4020, 0.4773,-1.1081,-0.2070, 1.2043,-0.4927,-0.2357,-0.2411, 0.8015
09-Sep-2020 11:14:21.260,-0.5500, 0.4639,-1.1006,-0.1204, 1.4460,-0.8408,-0.2251,-0.2419, 0.7961
09-Sep-2020 11:14:21.270,-0.4761, 0.4464,-0.9977,-0.2915, 1.4996,-0.9652,-0.2128,-0.2415, 0.7877
09-Sep-2020 11:14:21.280,-0.1868, 0.2413,-0.8408,-0.5451, 1.3769,-0.7701,-0.2004,-0.2424, 0.7776
09-Sep-2020 11:14:21.290,-0.1476, 0.2542,-0.7950,-0.7803, 1.3944,-0.6066,-0.1888,-0.2462, 0.7689
09-Sep-2020 11:14:21.300,-0.2343, 0.3800,-0.7830,-0.9646, 1.6195,-0.5879,-0.1767,-0.2527, 0.7612
09-Sep-2020 11:14:21.310,-0.2203, 0.3900,-0.7940,-1.0638, 2.1347,-0.5643,-0.1623,-0.2611, 0.7537
09-Sep-2020 11:14:21.320,-0.1562, 0.3105,-0.7884,-1.0386, 2.4804,-0.4859,-0.1431,-0.2707, 0.7464
09-Sep-2020 11:14:21.330,-0.1052, 0.2538,-0.9934,-0.8362, 2.2679,-0.4388,-0.1206,-0.2801, 0.7400
09-Sep-2020 11:14:21.340,-0.1012, 0.2895,-1.0255,-0.6946, 1.7309,-0.3374,-0.0997,-0.2879, 0.7347
09-Sep-2020 11:14:21.349, 0.0932, 0.2473,-1.0835,-0.4575, 1.1124,-0.0792,-0.0836,-0.2944, 0.7307
09-Sep-2020 11:14:21.360, 0.1901, 0.2061,-1.2241,-0.2044, 0.4206, 0.1669,-0.0730,-0.2989, 0.7296
09-Sep-2020 11:14:21.370, 0.1608, 0.2181,-1.2272, 0.0082, 0.0178, 0.3239,-0.0681,-0.3010, 0.7312
09-Sep-2020 11:14:21.379, 0.0845, 0.2623,-1.1122, 0.1121, 0.0131, 0.4213,-0.0667,-0.3012, 0.7346
09-Sep-2020 11:14:21.390,-0.0037, 0.3001,-0.9745, 0.0827, 0.3424, 0.4629,-0.0650,-0.3004, 0.7391
09-Sep-2020 11:14:21.400,-0.0264, 0.3244,-0.8761,-0.0035, 0.7044, 0.5145,-0.0601,-0.2999, 0.7441
09-Sep-2020 11:14:21.409, 0.0219, 0.3031,-0.9358, 0.0331, 0.7900, 0.6202,-0.0517,-0.3001, 0.7496
09-Sep-2020 11:14:21.419, 0.0526, 0.2835,-1.0442, 0.1573, 0.6277, 0.7105,-0.0421,-0.3000, 0.7561
09-Sep-2020 11:14:21.429, 0.0418, 0.3168,-1.0668, 0.2116, 0.4406, 0.7348,-0.0336,-0.2987, 0.7636
09-Sep-2020 11:14:21.439, 0.0549, 0.3374,-1.0618, 0.1459, 0.2892, 0.7110,-0.0270,-0.2969, 0.7713
09-Sep-2020 11:14:21.450, 0.0820, 0.3629,-1.0805, 0.0350, 0.0985, 0.6995,-0.0220,-0.2956, 0.7789
09-Sep-2020 11:14:21.459, 0.1292, 0.3860,-1.1048,-0.0186, 0.0668, 0.6958,-0.0187,-0.2954, 0.7862
09-Sep-2020 11:14:21.469, 0.1494, 0.3791,-1.1204,-0.0899, 0.0678, 0.7270,-0.0160,-0.2957, 0.7935
09-Sep-2020 11:14:21.479, 0.1226, 0.3988,-1.0999,-0.2343, 0.1353, 0.7616,-0.0130,-0.2967, 0.8012
09-Sep-2020 11:14:21.489, 0.0739, 0.3941,-1.0368,-0.4288, 0.3701, 0.7734,-0.0092,-0.2991, 0.8091
09-Sep-2020 11:14:21.499, 0.0316, 0.3581,-0.9804,-0.6527, 0.7475, 0.7622,-0.0030,-0.3034, 0.8173
09-Sep-2020 11:14:21.509,-0.0007, 0.3723,-0.9576,-0.8849, 1.0458, 0.7097, 0.0068,-0.3098, 0.8253
09-Sep-2020 11:14:21.519, 0.0202, 0.3499,-1.0238,-1.0483, 1.0806, 0.7156, 0.0194,-0.3185, 0.8329
09-Sep-2020 11:14:21.529, 0.0107, 0.3303,-1.1043,-1.1229, 0.9796, 0.7512, 0.0326,-0.3286, 0.8408
09-Sep-2020 11:14:21.539,-0.0167, 0.3241,-1.1453,-1.1198, 0.8064, 0.7973, 0.0450,-0.3394, 0.8493
09-Sep-2020 11:14:21.549,-0.0004, 0.3094,-1.1861,-1.0098, 0.4961, 0.8360, 0.0560,-0.3500, 0.8584
09-Sep-2020 11:14:21.558, 0.0246, 0.3071,-1.1648,-0.8673, 0.2333, 0.8687, 0.0643,-0.3595, 0.8680
09-Sep-2020 11:14:21.569, 0.0684, 0.3336,-1.0714,-0.8056, 0.1286, 0.8926, 0.0702,-0.3676, 0.8779
09-Sep-2020 11:14:21.579, 0.1171, 0.3767,-0.9516,-0.8592, 0.2614, 0.9193, 0.0754,-0.3750, 0.8881
09-Sep-2020 11:14:21.588, 0.1081, 0.4276,-0.9021,-0.9502, 0.3505, 0.8913, 0.0818,-0.3828, 0.8987
09-Sep-2020 11:14:21.598, 0.1397, 0.4151,-0.9577,-0.9043, 0.3445, 0.8318, 0.0892,-0.3913, 0.9091
09-Sep-2020 11:14:21.608, 0.1496, 0.3806,-1.0129,-0.8310, 0.1787, 0.7855, 0.0963,-0.3995, 0.9191
09-Sep-2020 11:14:21.618, 0.1346, 0.3595,-1.0176,-0.7724, 0.0605, 0.7875, 0.1018,-0.4069, 0.9285
09-Sep-2020 11:14:21.629, 0.1187, 0.3444,-0.9965,-0.7488, 0.0437, 0.8548, 0.1062,-0.4137, 0.9380
09-Sep-2020 11:14:21.638, 0.1040, 0.3109,-0.9757,-0.7997, 0.1476, 1.0119, 0.1109,-0.4202, 0.9483
09-Sep-2020 11:14:21.648, 0.0975, 0.2877,-0.9203,-0.9759, 0.3892, 1.2478, 0.1174,-0.4270, 0.9604
09-Sep-2020 11:14:21.658, 0.0799, 0.2928,-0.8693,-1.2441, 0.6828, 1.4732, 0.1275,-0.4352, 0.9753
09-Sep-2020 11:14:21.668, 0.0668, 0.3002,-0.8776,-1.5105, 0.8997, 1.6561, 0.1419,-0.4454, 0.9933
09-Sep-2020 11:14:21.679, 0.0737, 0.3103,-0.9179,-1.7175, 0.9482, 1.7847, 0.1598,-0.4578, 1.0139
09-Sep-2020 11:14:21.688, 0.0781, 0.3140,-0.9508,-1.8222, 0.9185, 1.8936, 0.1794,-0.4715, 1.0368
09-Sep-2020 11:14:21.698, 0.0919, 0.3167,-0.9488,-1.8639, 0.8416, 2.0296, 0.1999,-0.4857, 1.0615
09-Sep-2020 11:14:21.708, 0.1114, 0.3294,-0.9436,-1.8476, 0.7815, 2.2197, 0.2210,-0.4995, 1.0885
09-Sep-2020 11:14:21.718, 0.1314, 0.3448,-0.9383,-1.8415, 0.7306, 2.4413, 0.2431,-0.5123, 1.1180
09-Sep-2020 11:14:21.728, 0.1454, 0.3725,-0.9027,-1.8879, 0.7553, 2.6586, 0.2664,-0.5239, 1.1504
09-Sep-2020 11:14:21.738, 0.1680, 0.3951,-0.8631,-1.9819, 0.8254, 2.8722, 0.2919,-0.5347, 1.1860
09-Sep-2020 11:14:21.748, 0.1739, 0.4147,-0.8423,-2.0854, 0.8709, 3.0363, 0.3200,-0.5448, 1.2247
09-Sep-2020 11:14:21.758, 0.1787, 0.4276,-0.8378,-2.1539, 0.9189, 3.1821, 0.3504,-0.5544, 1.2662
09-Sep-2020 11:14:21.768, 0.1647, 0.4487,-0.8361,-2.2157, 0.8626, 3.3112, 0.3828,-0.5631, 1.3102
09-Sep-2020 11:14:21.777, 0.2132, 0.4595,-0.9035,-2.2040, 0.5166, 3.4806, 0.4159,-0.5704, 1.3564
09-Sep-2020 11:14:21.787, 0.2412, 0.4659,-0.8847,-2.2213, 0.3508, 3.5868, 0.4475,-0.5758, 1.4048
09-Sep-2020 11:14:21.797, 0.1998, 0.4851,-0.8047,-2.2619, 0.2095, 3.6779, 0.4783,-0.5796, 1.4548
09-Sep-2020 11:14:21.807, 0.2534, 0.5213,-0.8036,-2.3211, 0.0655, 3.7959, 0.5086,-0.5820, 1.5062
09-Sep-2020 11:14:21.817, 0.2702, 0.5588,-0.7589,-2.4066,-0.1383, 3.8793, 0.5384,-0.5831, 1.5593
09-Sep-2020 11:14:21.827, 0.2574, 0.5819,-0.7214,-2.4281,-0.3202, 3.9045, 0.5670,-0.5831, 1.6137
09-Sep-2020 11:14:21.837, 0.2436, 0.5820,-0.6848,-2.3747,-0.4222, 3.9057, 0.5940,-0.5819, 1.6685
09-Sep-2020 11:14:21.847, 0.2397, 0.5915,-0.6396,-2.2857,-0.5108, 3.9282, 0.6196,-0.5791, 1.7228
09-Sep-2020 11:14:21.857, 0.2622, 0.5965,-0.6028,-2.1718,-0.6198, 3.9917, 0.6438,-0.5742, 1.7766
09-Sep-2020 11:14:21.867, 0.2792, 0.5971,-0.5896,-2.0312,-0.8035, 4.0776, 0.6663,-0.5671, 1.8297
09-Sep-2020 11:14:21.877, 0.3046, 0.5759,-0.6055,-1.8436,-1.1495, 4.1853, 0.6861,-0.5573, 1.8821
09-Sep-2020 11:14:21.887, 0.3062, 0.5062,-0.6427,-1.6458,-1.5065, 4.3392, 0.7016,-0.5447, 1.9335
09-Sep-2020 11:14:21.897, 0.3103, 0.4880,-0.4945,-1.4845,-1.5072, 4.5053, 0.7128,-0.5290, 1.9841
09-Sep-2020 11:14:21.907, 0.3128, 0.5156,-0.4353,-1.3410,-1.4298, 4.6590, 0.7227,-0.5106, 2.0343
09-Sep-2020 11:14:21.917, 0.3181, 0.4949,-0.4228,-1.2062,-1.2877, 4.8135, 0.7323,-0.4896, 2.0839
09-Sep-2020 11:14:21.927, 0.3734, 0.4851,-0.4305,-1.0577,-1.2614, 4.9735, 0.7420,-0.4662, 2.1330
09-Sep-2020 11:14:21.937, 0.4167, 0.4785,-0.4750,-0.9666,-1.3057, 5.1060, 0.7506,-0.4403, 2.1814
09-Sep-2020 11:14:21.947, 0.4149, 0.4639,-0.3921,-0.9449,-1.2448, 5.1496, 0.7576,-0.4126, 2.2293
09-Sep-2020 11:14:21.957, 0.4193, 0.4272,-0.4021,-0.9515,-1.1624, 5.1186, 0.7635,-0.3840, 2.2766
09-Sep-2020 11:14:21.967, 0.4168, 0.3697,-0.3898,-0.9661,-0.9988, 5.0525, 0.7687,-0.3555, 2.3230
09-Sep-2020 11:14:21.977, 0.4342, 0.3220,-0.3755,-0.9527,-0.8088, 4.9925, 0.7740,-0.3272, 2.3684
09-Sep-2020 11:14:21.987, 0.4791, 0.2833,-0.4098,-0.8627,-0.6677, 4.9615, 0.7795,-0.2990, 2.4127
09-Sep-2020 11:14:21.997, 0.5295, 0.2461,-0.4565,-0.7102,-0.5974, 4.9108, 0.7848,-0.2702, 2.4555
09-Sep-2020 11:14:22.007, 0.7495, 0.3360,-0.4959,-0.5365,-0.5801, 4.2930, 0.7890,-0.2409, 2.4960
09-Sep-2020 11:14:22.017, 0.8203, 0.3215,-0.5074,-0.3994,-0.9165, 3.5439, 0.7907,-0.2142, 2.5308
09-Sep-2020 11:14:22.026, 0.9472, 0.2813,-0.6952,-0.3615,-1.8028, 2.4042, 0.7868,-0.1922, 2.5588
09-Sep-2020 11:14:22.037, 0.9845, 0.1721,-0.7929,-0.3981,-2.3034, 1.8693, 0.7727,-0.1775, 2.5791
09-Sep-2020 11:14:22.046, 0.7947, 0.0782,-0.6555,-0.8834,-1.7628, 1.6172, 0.7534,-0.1676, 2.5959
09-Sep-2020 11:14:22.056, 0.7029, 0.1003,-0.6247,-1.2932,-1.0352, 1.4092, 0.7389,-0.1630, 2.6139
09-Sep-2020 11:14:22.067, 0.7648, 0.2163,-0.6313,-1.3727,-0.6974, 1.2420, 0.7314,-0.1629, 2.6331
09-Sep-2020 11:14:22.076, 0.8803, 0.2880,-0.6246,-1.1524,-0.7523, 1.2663, 0.7273,-0.1645, 2.6516
09-Sep-2020 11:14:22.086, 0.8678, 0.3000,-0.6329,-0.9266,-0.6857, 1.3415, 0.7228,-0.1646, 2.6690
09-Sep-2020 11:14:22.096, 0.8037, 0.3239,-0.5921,-0.8741,-0.3786, 1.3020, 0.7187,-0.1629, 2.6853
09-Sep-2020 11:14:22.106, 0.7675, 0.3387,-0.5817,-0.9267, 0.0184, 1.2157, 0.7175,-0.1609, 2.7011
09-Sep-2020 11:14:22.116, 0.7886, 0.3367,-0.6311,-0.9593, 0.5382, 1.1722, 0.7203,-0.1598, 2.7165
09-Sep-2020 11:14:22.126, 0.8218, 0.3393,-0.6391,-1.0273, 0.6679, 1.1565, 0.7277,-0.1592, 2.7319
09-Sep-2020 11:14:22.136, 0.8951, 0.3363,-0.6227,-1.0638, 0.5238, 1.2013, 0.7367,-0.1590, 2.7475
09-Sep-2020 11:14:22.146, 0.9970, 0.3191,-0.6629,-0.9232, 0.5664, 1.2408, 0.7446,-0.1586, 2.7636
09-Sep-2020 11:14:22.156, 0.9756, 0.2695,-0.6178,-0.8073, 0.6148, 1.2423, 0.7527,-0.1569, 2.7791
09-Sep-2020 11:14:22.166, 0.9119, 0.2222,-0.5052,-0.7991, 0.6496, 1.3142, 0.7611,-0.1541, 2.7940
09-Sep-2020 11:14:22.176, 0.9581, 0.1971,-0.4255,-0.9148, 0.7953, 1.5576, 0.7699,-0.1507, 2.8092
09-Sep-2020 11:14:22.186, 0.9168, 0.2240,-0.3953,-1.1337, 0.8379, 1.6924, 0.7804,-0.1464, 2.8269
09-Sep-2020 11:14:22.196, 0.6550, 0.2757,-0.3593,-1.4384, 0.8488, 1.6620, 0.7916,-0.1425, 2.8470
09-Sep-2020 11:14:22.205, 0.6436, 0.2745,-0.3118,-1.6469, 0.8366, 1.8031, 0.8032,-0.1405, 2.8691
09-Sep-2020 11:14:22.216, 0.6981, 0.3061,-0.2928,-1.7541, 0.7612, 2.0313, 0.8149,-0.1386, 2.8936
09-Sep-2020 11:14:22.225, 0.6668, 0.3447,-0.2616,-1.9298, 0.5373, 2.2021, 0.8260,-0.1357, 2.9204
09-Sep-2020 11:14:22.235, 0.6003, 0.3272,-0.2303,-2.2397, 0.3100, 2.3122, 0.8353,-0.1325, 2.9497
09-Sep-2020 11:14:22.246, 0.5114, 0.2957,-0.1799,-2.6419, 0.1740, 2.3131, 0.8427,-0.1303, 2.9820
09-Sep-2020 11:14:22.255, 0.4448, 0.2604,-0.1505,-3.0703, 0.0763, 2.1799, 0.8490,-0.1305, 3.0172
09-Sep-2020 11:14:22.265, 0.4090, 0.2215,-0.1152,-3.5850,-0.0013, 1.9683, 0.8547,-0.1343, 3.0548
09-Sep-2020 11:14:22.275, 0.3817, 0.2457,-0.0579,-4.2015,-0.2139, 1.6755, 0.8602,-0.1428, 3.0950
09-Sep-2020 11:14:22.285, 0.4113, 0.3107,-0.2611,-4.6894,-1.2143, 1.4564, 0.8640,-0.1572, 3.1381
09-Sep-2020 11:14:22.295, 0.4675, 0.3391,-0.6482,-5.0694,-2.0402, 1.2692, 0.8597,-0.1765,-3.0995
09-Sep-2020 11:14:22.305, 0.3894, 0.3687,-0.6849,-5.1017,-2.3358, 1.1037, 0.8484,-0.1998,-3.0526
09-Sep-2020 11:14:22.315, 0.4561, 0.4036,-0.7758,-5.2731,-2.4659, 1.0475, 0.8350,-0.2254,-3.0062
09-Sep-2020 11:14:22.325, 0.3993, 0.4591,-1.4755,-4.0477,-2.3094, 0.8337, 0.8209,-0.2518,-2.9609
09-Sep-2020 11:14:22.335, 0.3732, 0.4379,-1.4847,-3.5015,-1.9147, 0.7254, 0.8071,-0.2734,-2.9241
09-Sep-2020 11:14:22.345, 0.4443, 0.4572,-1.3021,-2.5228,-1.0655, 0.3775, 0.7971,-0.2923,-2.8932
09-Sep-2020 11:14:22.355, 0.4540, 0.3877,-1.4004,-1.3677,-0.3578, 0.2295, 0.7927,-0.3070,-2.8716
09-Sep-2020 11:14:22.365, 0.5871, 0.3788,-1.3983,-0.5568, 0.2027, 0.2842, 0.7928,-0.3149,-2.8595
09-Sep-2020 11:14:22.375, 0.7166, 0.3425,-1.3235,-0.0465, 0.5989, 0.4771, 0.7967,-0.3167,-2.8530
09-Sep-2020 11:14:22.385, 0.7312, 0.2604,-1.3048, 0.3458, 0.6812, 0.6099, 0.8036,-0.3136,-2.8492
09-Sep-2020 11:14:22.395, 0.7052, 0.2217,-1.2516, 0.6173, 0.7031, 0.5856, 0.8109,-0.3069,-2.8474
09-Sep-2020 11:14:22.404, 0.6855, 0.1608,-1.1696, 0.7662, 0.6940, 0.4562, 0.8177,-0.2985,-2.8478
09-Sep-2020 11:14:22.415, 0.6818, 0.0950,-1.0954, 0.8188, 0.6447, 0.2876, 0.8238,-0.2899,-2.8504
09-Sep-2020 11:14:22.425, 0.7047, 0.0522,-1.0384, 0.8004, 0.5517, 0.1234, 0.8290,-0.2823,-2.8545
09-Sep-2020 11:14:22.434, 0.7468, 0.0277,-1.0063, 0.7482, 0.4250, 0.0096, 0.8330,-0.2759,-2.8597
09-Sep-2020 11:14:22.444, 0.7970, 0.0296,-0.9930, 0.6816, 0.2386,-0.0539, 0.8357,-0.2708,-2.8653
09-Sep-2020 11:14:22.454, 0.8455, 0.0625,-1.0255, 0.6680,-0.0551,-0.0689, 0.8365,-0.2665,-2.8709
09-Sep-2020 11:14:22.464, 0.8925, 0.0979,-1.0597, 0.7479,-0.4078, 0.0040, 0.8344,-0.2624,-2.8765
09-Sep-2020 11:14:22.474, 0.9390, 0.1141,-1.0969, 0.9803,-0.8509, 0.1652, 0.8288,-0.2571,-2.8822
09-Sep-2020 11:14:22.484, 0.9469, 0.1034,-1.1383, 1.3274,-1.3660, 0.3282, 0.8187,-0.2492,-2.8885
09-Sep-2020 11:14:22.494, 0.9298, 0.0807,-1.1125, 1.6770,-1.8120, 0.4571, 0.8033,-0.2376,-2.8960
09-Sep-2020 11:14:22.504, 0.9197, 0.0489,-1.0292, 1.9253,-2.1290, 0.5582, 0.7833,-0.2226,-2.9049
09-Sep-2020 11:14:22.514, 0.9241, 0.0027,-0.9345, 1.9837,-2.4277, 0.6517, 0.7601,-0.2051,-2.9143
09-Sep-2020 11:14:22.524, 0.9075,-0.0389,-0.8436, 1.9189,-2.7515, 0.7737, 0.7342,-0.1861,-2.9231
09-Sep-2020 11:14:22.534, 0.8838,-0.0518,-0.7930, 1.8520,-3.2650, 0.9229, 0.7055,-0.1666,-2.9299
09-Sep-2020 11:14:22.544, 0.8760,-0.0538,-0.8012, 1.8338,-4.0539, 1.0573, 0.6721,-0.1465,-2.9346
09-Sep-2020 11:14:22.554, 0.8410,-0.0782,-0.7547, 1.5700,-4.5507, 1.0200, 0.6316,-0.1257,-2.9373
09-Sep-2020 11:14:22.564, 0.7136,-0.1343,-0.6067, 1.0160,-4.1607, 0.7818, 0.5868,-0.1072,-2.9379
09-Sep-2020 11:14:22.574, 0.5671,-0.1632,-0.4222, 0.3601,-2.8211, 0.3670, 0.5462,-0.0946,-2.9368
09-Sep-2020 11:14:22.584, 0.5086,-0.1366,-0.4359, 0.0663,-1.6665,-0.0354, 0.5181,-0.0894,-2.9355
09-Sep-2020 11:14:22.594, 0.5668,-0.0868,-0.6150, 0.0883,-1.1773,-0.2439, 0.5010,-0.0887,-2.9361
09-Sep-2020 11:14:22.604, 0.6620,-0.0479,-0.7408, 0.1271,-0.9941,-0.1966, 0.4889,-0.0889,-2.9385
09-Sep-2020 11:14:22.613, 0.7340,-0.0167,-0.7427, 0.1146,-0.6669,-0.0506, 0.4789,-0.0887,-2.9407
09-Sep-2020 11:14:22.624, 0.7322,-0.0003,-0.7069, 0.1473,-0.1871, 0.0508, 0.4722,-0.0878,-2.9417
09-Sep-2020 11:14:22.633, 0.6887, 0.0067,-0.7139, 0.2252, 0.3281, 0.0606, 0.4704,-0.0862,-2.9419
09-Sep-2020 11:14:22.644, 0.6548, 0.0224,-0.7284, 0.2822, 0.7640,-0.0246, 0.4736,-0.0839,-2.9424
09-Sep-2020 11:14:22.654, 0.6730, 0.0395,-0.7497, 0.3179, 1.0772,-0.1087, 0.4810,-0.0814,-2.9438
09-Sep-2020 11:14:22.663, 0.7677, 0.0482,-0.7636, 0.3148, 1.2418,-0.0879, 0.4914,-0.0791,-2.9462
09-Sep-2020 11:14:22.674, 0.8519, 0.0295,-0.7892, 0.2927, 1.2898, 0.0237, 0.5035,-0.0766,-2.9483
09-Sep-2020 11:14:22.683, 0.8801,-0.0029,-0.7921, 0.2445, 1.2844, 0.1898, 0.5162,-0.0739,-2.9494
09-Sep-2020 11:14:22.693, 0.8854,-0.0055,-0.8158, 0.1963, 1.1444, 0.3376, 0.5289,-0.0708,-2.9490
09-Sep-2020 11:14:22.703, 0.8773, 0.0249,-0.8629, 0.1495, 0.9289, 0.4690, 0.5403,-0.0673,-2.9470
09-Sep-2020 11:14:22.713, 0.8713, 0.0454,-0.8933, 0.1059, 0.7121, 0.5572, 0.5498,-0.0636,-2.9438
09-Sep-2020 11:14:22.723, 0.7491, 0.0791,-0.9321, 0.1113, 0.4385, 0.4824, 0.5571,-0.0597,-2.9397
09-Sep-2020 11:14:22.733, 0.7008, 0.1443,-1.0171, 0.1782, 0.1711, 0.3878, 0.5616,-0.0562,-2.9362
09-Sep-2020 11:14:22.743, 0.7251, 0.1671,-1.0535, 0.3015, 0.0066, 0.3468, 0.5635,-0.0525,-2.9338
09-Sep-2020 11:14:22.753, 0.7276, 0.1343,-1.0658, 0.5196, 0.0047, 0.3478, 0.5637,-0.0480,-2.9324
09-Sep-2020 11:14:22.763, 0.7091, 0.1109,-1.0447, 0.7842, 0.2024, 0.3447, 0.5639,-0.0416,-2.9323
09-Sep-2020 11:14:22.773, 0.6776, 0.0911,-0.9890, 1.0205, 0.4843, 0.3187, 0.5659,-0.0332,-2.9335
09-Sep-2020 11:14:22.783, 0.6622, 0.0663,-0.9320, 1.1820, 0.6844, 0.2875, 0.5706,-0.0229,-2.9362
09-Sep-2020 11:14:22.793, 0.6532, 0.0560,-0.8716, 1.2334, 0.7666, 0.2612, 0.5773,-0.0114,-2.9401
09-Sep-2020 11:14:22.803, 0.6361, 0.0437,-0.8216, 1.2113, 0.7311, 0.2347, 0.5848, 0.0003,-2.9446
09-Sep-2020 11:14:22.813, 0.6078, 0.0198,-0.7981, 1.1492, 0.6295, 0.1900, 0.5921, 0.0117,-2.9493
09-Sep-2020 11:14:22.823, 0.5735, 0.0151,-0.7993, 1.0733, 0.4754, 0.1041, 0.5984, 0.0222,-2.9542
09-Sep-2020 11:14:22.833, 0.5310, 0.0161,-0.8158, 0.9881, 0.3217,-0.0405, 0.6032, 0.0317,-2.9594
09-Sep-2020 11:14:22.843, 0.4798, 0.0320,-0.8460, 0.9216, 0.2094,-0.2405, 0.6067, 0.0396,-2.9653
09-Sep-2020 11:14:22.854, 0.4302, 0.0672,-0.8752, 0.8960, 0.1703,-0.4788, 0.6091, 0.0458,-2.9725
09-Sep-2020 11:14:22.863, 0.4165, 0.0832,-0.9174, 0.9570, 0.2465,-0.7121, 0.6113, 0.0505,-2.9815
09-Sep-2020 11:14:22.872, 0.4386, 0.0828,-0.9691, 1.1176, 0.4438,-0.9023, 0.6144, 0.0544,-2.9928
09-Sep-2020 11:14:22.882, 0.4968, 0.0791,-1.0225, 1.3604, 0.7098,-1.0140, 0.6196, 0.0584,-3.0065
09-Sep-2020 11:14:22.892, 0.5865, 0.0774,-1.0710, 1.6527, 0.9507,-1.0472, 0.6277, 0.0636,-3.0226
09-Sep-2020 11:14:22.902, 0.6691, 0.0735,-1.0869, 1.9219, 1.1092,-1.0102, 0.6383, 0.0708,-3.0406
09-Sep-2020 11:14:22.913, 0.7235, 0.0466,-1.0633, 2.1307, 1.0855,-0.9149, 0.6506, 0.0802,-3.0601
09-Sep-2020 11:14:22.922, 0.7513, 0.0212,-1.0333, 2.2156, 0.9587,-0.8299, 0.6631, 0.0914,-3.0803
09-Sep-2020 11:14:22.932, 0.7467,-0.0117,-0.9569, 2.2089, 0.7541,-0.7361, 0.6745, 0.1036,-3.1004
09-Sep-2020 11:14:22.942, 0.7487,-0.0411,-0.9145, 2.1519, 0.5052,-0.6425, 0.6841, 0.1162,-3.1200
09-Sep-2020 11:14:22.952, 0.7074,-0.0557,-0.8540, 2.0591, 0.3066,-0.5830, 0.6914, 0.1287,-3.1387
09-Sep-2020 11:14:22.962, 0.6111,-0.0680,-0.7112, 1.9143, 0.3772,-0.6005, 0.6970, 0.1407, 3.1268
09-Sep-2020 11:14:22.972, 0.4886,-0.0639,-0.5318, 1.8112, 0.6791,-0.7137, 0.7033, 0.1515, 3.1098
09-Sep-2020 11:14:22.982, 0.4677,-0.0328,-0.5559, 1.7664, 0.5705,-0.8447, 0.7125, 0.1607, 3.0925
09-Sep-2020 11:14:22.992, 0.4173, 0.0085,-0.7033, 1.6316, 0.5139,-1.0968, 0.7213, 0.1683, 3.0743
09-Sep-2020 11:14:23.002, 0.3418,-0.0327,-0.5292, 1.3958, 0.8262,-1.3648, 0.7298, 0.1733, 3.0552
09-Sep-2020 11:14:23.012, 0.3159,-0.1088,-0.3572, 1.1184, 1.2603,-1.6266, 0.7413, 0.1746, 3.0355
09-Sep-2020 11:14:23.022, 0.4188,-0.1566,-0.0099, 0.6241, 1.7971,-1.7152, 0.7573, 0.1717, 3.0160
09-Sep-2020 11:14:23.032, 0.6387,-0.2103, 0.0186, 0.1788, 2.0493,-1.6257, 0.7778, 0.1645, 2.9992
09-Sep-2020 11:14:23.042, 0.7942,-0.2054,-0.1489,-0.0975, 2.0347,-1.4333, 0.8001, 0.1545, 2.9864
09-Sep-2020 11:14:23.052, 0.8766,-0.1718,-0.3724,-0.1517, 1.7446,-1.2340, 0.8215, 0.1436, 2.9771
09-Sep-2020 11:14:23.062, 0.8328,-0.1200,-0.5397,-0.1043, 1.3341,-1.0914, 0.8398, 0.1337, 2.9698
09-Sep-2020 11:14:23.071, 0.7354,-0.0640,-0.6016,-0.1183, 1.0004,-1.0702, 0.8539, 0.1248, 2.9633
09-Sep-2020 11:14:23.082, 0.6486,-0.0146,-0.6200,-0.1959, 0.7645,-1.1501, 0.8647, 0.1160, 2.9572
09-Sep-2020 11:14:23.091, 0.5819, 0.0346,-0.6497,-0.2588, 0.4727,-1.3323, 0.8729, 0.1060, 2.9512
09-Sep-2020 11:14:23.101, 0.5163, 0.0541,-0.6651,-0.3004, 0.2206,-1.5313, 0.8782, 0.0942, 2.9447
09-Sep-2020 11:14:23.112, 0.4653, 0.0427,-0.6185,-0.2759, 0.2250,-1.7817, 0.8813, 0.0807, 2.9372
09-Sep-2020 11:14:23.121, 0.4394, 0.0321,-0.5707,-0.2346, 0.3962,-2.0340, 0.8843, 0.0653, 2.9281
09-Sep-2020 11:14:23.131, 0.5117,-0.0163,-0.5618,-0.1835, 0.5580,-2.1791, 0.8889, 0.0483, 2.9171
09-Sep-2020 11:14:23.141, 0.6948,-0.0927,-0.5723,-0.2206, 0.6898,-2.1552, 0.8949, 0.0303, 2.9050
09-Sep-2020 11:14:23.153, 0.9176,-0.1364,-0.5651,-0.3653, 0.5908,-1.9372, 0.9019, 0.0123, 2.8935
09-Sep-2020 11:14:23.161, 1.0395,-0.1334,-0.6430,-0.5137, 0.2818,-1.6926, 0.9077,-0.0050, 2.8845
09-Sep-2020 11:14:23.171, 1.0512,-0.0891,-0.6620,-0.6842,-0.0496,-1.4877, 0.9104,-0.0214, 2.8782
09-Sep-2020 11:14:23.180, 1.0457,-0.0681,-0.6497,-0.8472,-0.3908,-1.2715, 0.9097,-0.0372, 2.8745
09-Sep-2020 11:14:23.191, 1.0205,-0.0480,-0.6162,-1.0091,-0.5884,-1.0557, 0.9059,-0.0523, 2.8734
09-Sep-2020 11:14:23.201, 0.9391, 0.0187,-0.5470,-1.1336,-0.6297,-0.9099, 0.9002,-0.0667, 2.8747
09-Sep-2020 11:14:23.210, 0.8331, 0.0879,-0.5103,-1.1675,-0.5494,-0.8508, 0.8943,-0.0808, 2.8778
09-Sep-2020 11:14:23.220, 0.7723, 0.1196,-0.4970,-1.1135,-0.4119,-0.8135, 0.8891,-0.0945, 2.8815
09-Sep-2020 11:14:23.230, 0.7321, 0.1309,-0.4990,-1.0174,-0.2954,-0.7923, 0.8854,-0.1077, 2.8850
09-Sep-2020 11:14:23.240, 0.7202, 0.1409,-0.5203,-0.9031,-0.2213,-0.8002, 0.8827,-0.1202, 2.8879
09-Sep-2020 11:14:23.251, 0.7074, 0.1805,-0.5111,-0.8297,-0.0546,-0.8884, 0.8809,-0.1321, 2.8897
09-Sep-2020 11:14:23.260, 0.6653, 0.2170,-0.4980,-0.8199, 0.1151,-1.0253, 0.8804,-0.1441, 2.8905
09-Sep-2020 11:14:23.270, 0.6421, 0.2342,-0.5334,-0.8351, 0.2850,-1.1731, 0.8815,-0.1571, 2.8904
09-Sep-2020 11:14:23.280, 0.5886, 0.2695,-0.5009,-0.8736, 0.6408,-1.3336, 0.8843,-0.1714, 2.8894
09-Sep-2020 11:14:23.290, 0.5490, 0.2740,-0.4772,-0.8858, 1.0644,-1.4447, 0.8904,-0.1870, 2.8877
09-Sep-2020 11:14:23.300, 0.5140, 0.2724,-0.4319,-0.8822, 1.5166,-1.5714, 0.9006,-0.2037, 2.8856
09-Sep-2020 11:14:23.310, 0.4949, 0.2796,-0.4093,-0.8179, 1.9032,-1.7236, 0.9150,-0.2213, 2.8828
09-Sep-2020 11:14:23.320, 0.3847, 0.3444,-0.4058,-0.7282, 2.2530,-2.0958, 0.9330,-0.2400, 2.8787
09-Sep-2020 11:14:23.330, 0.5439, 0.3631,-0.3740,-0.7064, 2.5324,-2.2063, 0.9538,-0.2609, 2.8723
09-Sep-2020 11:14:23.340, 0.8033, 0.3653,-0.3013,-0.7580, 2.6742,-2.1048, 0.9770,-0.2828, 2.8655
09-Sep-2020 11:14:23.350, 0.9144, 0.3499,-0.3339,-0.8277, 2.6452,-1.9856, 1.0019,-0.3044, 2.8601
09-Sep-2020 11:14:23.360, 0.9568, 0.3659,-0.3561,-0.9505, 2.5589,-1.9150, 1.0271,-0.3255, 2.8565
09-Sep-2020 11:14:23.370, 0.9327, 0.3904,-0.4053,-1.0674, 2.3270,-1.9549, 1.0519,-0.3467, 2.8549
09-Sep-2020 11:14:23.380, 0.8978, 0.3300,-0.4695,-1.1603, 1.9532,-2.0332, 1.0749,-0.3688, 2.8547
09-Sep-2020 11:14:23.390, 0.9352, 0.3115,-0.4908,-1.2497, 1.5470,-2.0635, 1.0946,-0.3920, 2.8555
09-Sep-2020 11:14:23.400, 0.9776, 0.3551,-0.4424,-1.4234, 1.1064,-2.0621, 1.1108,-0.4159, 2.8576
09-Sep-2020 11:14:23.410, 0.9278, 0.4171,-0.3612,-1.6652, 0.7594,-2.1395, 1.1236,-0.4406, 2.8617
09-Sep-2020 11:14:23.420, 0.7906, 0.4835,-0.3433,-1.8675, 0.4875,-2.3227, 1.1340,-0.4668, 2.8682
09-Sep-2020 11:14:23.430, 0.6457, 0.5650,-0.3377,-1.9462, 0.4277,-2.5966, 1.1427,-0.4955, 2.8762
09-Sep-2020 11:14:23.439, 0.6159, 0.6608,-0.3513,-1.8780, 0.6046,-2.8472, 1.1509,-0.5269, 2.8842
09-Sep-2020 11:14:23.449, 0.5218, 0.7300,-0.3753,-1.6718, 0.8772,-3.1124, 1.1603,-0.5602, 2.8907
09-Sep-2020 11:14:23.459, 0.4613, 0.7245,-0.3812,-1.4298, 1.1509,-3.2942, 1.1711,-0.5951, 2.8944
09-Sep-2020 11:14:23.469, 0.5318, 0.6796,-0.3364,-1.2497, 1.3305,-3.3387, 1.1829,-0.6307, 2.8951
09-Sep-2020 11:14:23.480, 0.6407, 0.6485,-0.2725,-1.2164, 1.3151,-3.2749, 1.1954,-0.6660, 2.8942
09-Sep-2020 11:14:23.489, 0.7747, 0.6411,-0.1862,-1.3928, 0.9928,-3.0908, 1.2081,-0.7007, 2.8938
09-Sep-2020 11:14:23.499, 0.9338, 0.6239,-0.1457,-1.6496, 0.4381,-2.7457, 1.2199,-0.7342, 2.8969
09-Sep-2020 11:14:23.509, 0.9848, 0.5993,-0.1930,-1.8309,-0.0015,-2.3846, 1.2300,-0.7653, 2.9053
09-Sep-2020 11:14:23.519, 0.8999, 0.5452,-0.2383,-1.8644,-0.0498,-2.1614, 1.2395,-0.7937, 2.9183
09-Sep-2020 11:14:23.529, 0.8310, 0.5862,-0.2317,-1.8434, 0.0300,-2.0322, 1.2501,-0.8200, 2.9337
09-Sep-2020 11:14:23.539, 0.8223, 0.6628,-0.2035,-1.8000, 0.0199,-1.8979, 1.2626,-0.8448, 2.9503
09-Sep-2020 11:14:23.549, 0.8054, 0.7163,-0.1628,-1.7523,-0.1884,-1.7543, 1.2759,-0.8681, 2.9678
09-Sep-2020 11:14:23.559, 0.7918, 0.7321,-0.1457,-1.6488,-0.4743,-1.5435, 1.2880,-0.8897, 2.9861
09-Sep-2020 11:14:23.569, 0.8022, 0.7802,-0.0835,-1.4668,-0.6400,-1.3723, 1.2979,-0.9089, 3.0046
09-Sep-2020 11:14:23.579, 0.7951, 0.8014,-0.0565,-1.2028,-0.6943,-1.2440, 1.3051,-0.9258, 3.0216
09-Sep-2020 11:14:23.589, 0.7799, 0.8316,-0.0270,-0.9384,-0.5956,-1.1486, 1.3095,-0.9409, 3.0356
09-Sep-2020 11:14:23.599, 0.7240, 0.8997, 0.0205,-0.7019,-0.5502,-1.1239, 1.3120,-0.9543, 3.0460
09-Sep-2020 11:14:23.609, 0.6559, 0.9560, 0.0327,-0.4670,-0.4659,-1.1565, 1.3120,-0.9668, 3.0527
09-Sep-2020 11:14:23.619, 0.6160, 0.9673, 0.0150,-0.2696,-0.3033,-1.1709, 1.3096,-0.9790, 3.0555
09-Sep-2020 11:14:23.629, 0.6018, 0.9689,-0.0378,-0.1433,-0.1525,-1.1254, 1.3060,-0.9909, 3.0547
09-Sep-2020 11:14:23.639, 0.5756, 0.9675,-0.1013,-0.0936,-0.0407,-1.0897, 1.3021,-1.0020, 3.0519
09-Sep-2020 11:14:23.649, 0.5393, 0.9680,-0.1434,-0.0843, 0.1165,-1.0908, 1.2985,-1.0127, 3.0482
09-Sep-2020 11:14:23.658, 0.5204, 0.9964,-0.1456,-0.0641, 0.4265,-1.1078, 1.2963,-1.0233, 3.0441
09-Sep-2020 11:14:23.668, 0.4644, 1.0891,-0.1147,-0.0891, 0.8009,-1.1598, 1.2967,-1.0340, 3.0395
09-Sep-2020 11:14:23.679, 0.5140, 1.0912,-0.0058,-0.1939, 1.0855,-1.0274, 1.3012,-1.0452, 3.0354
09-Sep-2020 11:14:23.689, 0.5403, 1.0273, 0.0027,-0.4187, 1.5287,-1.0814, 1.3106,-1.0557, 3.0336
09-Sep-2020 11:14:23.699, 0.1455, 0.9726, 0.7044,-1.5075, 2.3799,-1.6160, 1.3296,-1.0675, 3.0375
09-Sep-2020 11:14:23.711, 0.1121, 0.9557, 0.6206,-2.0039, 2.1185,-1.9392, 1.3726,-1.0862, 3.0604
09-Sep-2020 11:14:23.718, 0.7007, 0.7894,-0.9504,-0.7017, 1.0149,-1.5851, 1.4223,-1.1078, 3.0933
09-Sep-2020 11:14:23.728, 0.5679, 0.8500,-0.8043, 0.1804, 0.2233,-1.1520, 1.4431,-1.1244, 3.1049
09-Sep-2020 11:14:23.738, 0.5828, 0.8161,-0.1723, 0.3308,-0.0101,-0.6054, 1.4397,-1.1354, 3.0983
09-Sep-2020 11:14:23.748, 0.5070, 0.6766, 0.0143,-0.0043, 0.1553,-0.4138, 1.4316,-1.1411, 3.0892
09-Sep-2020 11:14:23.758, 0.3349, 0.6832, 0.0892,-0.4368, 0.1792,-0.5727, 1.4318,-1.1454, 3.0879
09-Sep-2020 11:14:23.768, 0.2763, 0.7072, 0.0396,-0.7354, 0.1804,-0.8397, 1.4412,-1.1516, 3.0963
09-Sep-2020 11:14:23.778, 0.2635, 0.7249, 0.0045,-0.9145, 0.1653,-1.1085, 1.4569,-1.1607, 3.1116
09-Sep-2020 11:14:23.788, 0.2673, 0.7195,-0.0366,-0.9478, 0.1310,-1.4002, 1.4767,-1.1725, 3.1313
09-Sep-2020 11:14:23.798, 0.2610, 0.6559,-0.1097,-0.8516,-0.0439,-1.7084, 1.4976,-1.1871,-3.1306
09-Sep-2020 11:14:23.808, 0.2908, 0.6319,-0.1293,-0.6675,-0.4437,-1.9269, 1.5155,-1.2045,-3.1107
09-Sep-2020 11:14:23.818, 0.3348, 0.5853,-0.1140,-0.4501,-0.8469,-2.0185, 1.5262,-1.2238,-3.0945
09-Sep-2020 11:14:23.828, 0.3647, 0.6468,-0.0047,-0.1312,-1.0434,-2.0955, 1.5278,-1.2440,-3.0839
09-Sep-2020 11:14:23.838, 0.4199, 0.7214, 0.0354, 0.1400,-0.9800,-2.0003, 1.5184,-1.2648,-3.0830
09-Sep-2020 11:14:23.848, 0.5197, 0.7776, 0.1386,-0.0078,-0.6492,-1.4552, 1.5011,-1.2842,-3.0910
09-Sep-2020 11:14:23.857, 0.5747, 0.8510, 0.2135,-0.5039,-0.2663,-0.7184, 1.4920,-1.2984,-3.0938
09-Sep-2020 11:14:23.867, 0.5435, 0.9284, 0.2292,-0.8446,-0.3404,-0.0661, 1.5048,-1.3059,-3.0775
09-Sep-2020 11:14:23.877, 0.3552, 1.0089, 0.1291,-0.8457,-0.5816, 0.1761, 1.5311,-1.3071,-3.0465
09-Sep-2020 11:14:23.887, 0.1769, 1.0414, 0.0433,-0.6600,-0.7952, 0.1467, 1.5561,-1.3057,-3.0147
09-Sep-2020 11:14:23.897, 0.1618, 1.0903,-0.0323,-0.3838,-1.0398,-0.0066, 1.5720,-1.3043,-2.9900
09-Sep-2020 11:14:23.907, 0.2109, 1.1385,-0.0567,-0.0673,-1.0289,-0.0590, 1.5757,-1.3042,-2.9757
09-Sep-2020 11:14:23.917, 0.2719, 1.0762,-0.0573, 0.2542,-0.8544,-0.0273, 1.5678,-1.3047,-2.9733
09-Sep-2020 11:14:23.927, 0.2942, 0.9908, 0.0515, 0.4681,-0.5462, 0.0285, 1.5501,-1.3048,-2.9828
09-Sep-2020 11:14:23.937, 0.2645, 0.9070, 0.1434, 0.5184,-0.1454, 0.0511, 1.5280,-1.3044,-3.0002
09-Sep-2020 11:14:23.947, 0.2438, 0.8497, 0.1582, 0.4443, 0.2013, 0.0292, 1.5079,-1.3035,-3.0194
09-Sep-2020 11:14:23.957, 0.2456, 0.8221, 0.1172, 0.3278, 0.4385,-0.0458, 1.4938,-1.3029,-3.0361
09-Sep-2020 11:14:23.967, 0.2493, 0.8107, 0.0783, 0.2048, 0.6079,-0.1734, 1.4860,-1.3030,-3.0486
09-Sep-2020 11:14:23.977, 0.2478, 0.8068, 0.0361, 0.1342, 0.7308,-0.3487, 1.4837,-1.3045,-3.0572
09-Sep-2020 11:14:23.987, 0.2321, 0.7845,-0.0208, 0.1191, 0.6160,-0.5801, 1.4846,-1.3078,-3.0637
09-Sep-2020 11:14:23.997, 0.2163, 0.7695,-0.0998, 0.1574, 0.4244,-0.8249, 1.4842,-1.3134,-3.0704
09-Sep-2020 11:14:24.007, 0.1977, 0.7200,-0.1118, 0.2413, 0.2958,-1.0583, 1.4794,-1.3214,-3.0797
09-Sep-2020 11:14:24.017, 0.1671, 0.6812,-0.1194, 0.3558, 0.1725,-1.2828, 1.4684,-1.3315,-3.0941
09-Sep-2020 11:14:24.027, 0.1309, 0.6421,-0.1262, 0.4238, 0.0858,-1.4686, 1.4492,-1.3437,-3.1155
09-Sep-2020 11:14:24.037, 0.0900, 0.5811,-0.1062, 0.3762,-0.0247,-1.6044, 1.4228,-1.3576, 3.1397
09-Sep-2020 11:14:24.047, 0.0460, 0.5522,-0.0871, 0.0743,-0.0445,-1.7201, 1.3925,-1.3726, 3.1091
09-Sep-2020 11:14:24.056,-0.0322, 0.8835, 0.3103,-0.4585, 0.3653,-1.7454, 1.3732,-1.3893, 3.0893
09-Sep-2020 11:14:24.067, 0.0548, 0.5464, 0.2225,-1.3594, 0.7350,-1.3604, 1.3875,-1.4071, 3.1000
09-Sep-2020 11:14:24.077, 0.1292, 0.5226, 0.4994,-2.4968, 0.4424,-0.7867, 1.4699,-1.4223,-3.1066
09-Sep-2020 11:14:24.087, 0.1296, 0.4233, 0.3293,-2.7009,-0.5229,-0.1012, 1.6398,-1.4304,-2.9390
09-Sep-2020 11:14:24.097, 0.1502, 0.4370,-0.1524,-1.6938,-2.0384, 0.7284, 1.8140,-1.4271,-2.7572
09-Sep-2020 11:14:24.107, 0.1408, 0.5107,-0.3184,-0.6645,-2.8007, 1.4492, 1.8878,-1.4155,-2.6625
09-Sep-2020 11:14:24.117, 0.0900, 0.5120,-0.1512,-0.2684,-2.8869, 1.9109, 1.8746,-1.3997,-2.6482
09-Sep-2020 11:14:24.127,-0.0363, 0.7259,-0.1153, 0.0277,-3.0710, 1.6366, 1.8313,-1.3811,-2.6628
09-Sep-2020 11:14:24.136,-0.0475, 1.1460,-0.3332, 0.4156,-3.4616, 1.1672, 1.7801,-1.3654,-2.6838
09-Sep-2020 11:14:24.147, 0.2707, 1.7812,-0.6691, 0.8688,-4.8613, 0.8943, 1.7156,-1.3544,-2.7137
09-Sep-2020 11:14:24.156, 0.5817, 3.3579,-0.0988, 0.3226,-3.2030, 0.5076, 1.6318,-1.3467,-2.7521
09-Sep-2020 11:14:24.168, 1.2679, 4.1510, 0.6933,-0.5021,-1.6879, 0.6274, 1.5854,-1.3413,-2.7668
09-Sep-2020 11:14:24.176, 0.9959, 3.2121, 0.5231,-1.1924, 1.3741, 0.3242, 1.5925,-1.3352,-2.7455
09-Sep-2020 11:14:24.186, 0.4207, 2.0377, 0.1228,-1.2179, 1.2933, 0.0397, 1.6483,-1.3313,-2.6974
09-Sep-2020 11:14:24.196, 0.2639, 1.1856,-0.2939,-0.9940, 1.4036,-0.1766, 1.7100,-1.3296,-2.6474
09-Sep-2020 11:14:24.206, 0.1186, 0.7302,-0.2625,-0.4132, 1.0421,-0.3236, 1.7634,-1.3296,-2.6064
09-Sep-2020 11:14:24.216, 0.1228, 0.4592,-0.4094, 0.6229, 0.1408,-0.4000, 1.7909,-1.3319,-2.5884
09-Sep-2020 11:14:24.226, 0.1491, 0.3882,-0.2616, 1.4428,-0.3318,-0.4657, 1.7712,-1.3370,-2.6104
09-Sep-2020 11:14:24.236, 0.2025, 0.6018, 0.0501, 1.6731, 0.0432,-0.5056, 1.7130,-1.3439,-2.6674
09-Sep-2020 11:14:24.246, 0.2892, 0.8087, 0.1829, 1.5484, 0.4317,-0.4635, 1.6436,-1.3505,-2.7389
09-Sep-2020 11:14:24.256, 0.3589, 0.9428, 0.2341, 1.1121, 0.7749,-0.3532, 1.5800,-1.3556,-2.8085
09-Sep-2020 11:14:24.266, 0.3716, 0.9904, 0.3262, 0.5863, 0.9570,-0.2178, 1.5365,-1.3589,-2.8608
09-Sep-2020 11:14:24.276, 0.2948, 0.9281, 0.3112, 0.1831, 0.8669,-0.1065, 1.5175,-1.3607,-2.8897
09-Sep-2020 11:14:24.285, 0.2116, 0.9181, 0.2412, 0.0172, 0.6696,-0.0380, 1.5164,-1.3617,-2.8996
09-Sep-2020 11:14:24.295, 0.1608, 0.9519, 0.2075, 0.0588, 0.5251,-0.0304, 1.5213,-1.3620,-2.9014
09-Sep-2020 11:14:24.305, 0.1116, 0.9933, 0.1416, 0.0258, 0.3286,-0.1253, 1.5238,-1.3623,-2.9042
09-Sep-2020 11:14:24.315, 0.0981, 0.9980, 0.0622,-0.0936, 0.0830,-0.2588, 1.5256,-1.3635,-2.9056
09-Sep-2020 11:14:24.325, 0.1065, 0.9847, 0.0101,-0.2542,-0.1320,-0.3669, 1.5303,-1.3660,-2.9016
09-Sep-2020 11:14:24.335, 0.1174, 0.9754,-0.0387,-0.3522,-0.3710,-0.4447, 1.5402,-1.3696,-2.8901
09-Sep-2020 11:14:24.345, 0.1210, 0.9541,-0.1039,-0.3115,-0.6772,-0.4951, 1.5527,-1.3741,-2.8736
09-Sep-2020 11:14:24.355, 0.1358, 0.9456,-0.0994,-0.2109,-0.7875,-0.5033, 1.5611,-1.3789,-2.8583
09-Sep-2020 11:14:24.365, 0.1658, 0.9697,-0.0347,-0.1003,-0.6043,-0.4721, 1.5640,-1.3839,-2.8475
09-Sep-2020 11:14:24.375, 0.1852, 0.9812,-0.0273, 0.0591,-0.3238,-0.4056, 1.5628,-1.3885,-2.8426
09-Sep-2020 11:14:24.385, 0.1935, 1.0136,-0.0266, 0.1659,-0.0121,-0.3395, 1.5562,-1.3924,-2.8461
09-Sep-2020 11:14:24.395, 0.1937, 1.0479,-0.0224, 0.2054, 0.2129,-0.2838, 1.5464,-1.3957,-2.8558
09-Sep-2020 11:14:24.405, 0.1908, 1.0563,-0.0127, 0.1952, 0.3136,-0.2358, 1.5363,-1.3984,-2.8682
09-Sep-2020 11:14:24.415, 0.1770, 1.0184, 0.0172, 0.1872, 0.3518,-0.1804, 1.5273,-1.4006,-2.8804
09-Sep-2020 11:14:24.425, 0.1552, 0.9831, 0.0355, 0.2282, 0.2893,-0.1414, 1.5190,-1.4022,-2.8924
09-Sep-2020 11:14:24.435, 0.1298, 0.9751, 0.0487, 0.2523, 0.1490,-0.1283, 1.5078,-1.4034,-2.9065
09-Sep-2020 11:14:24.445, 0.1063, 0.9868, 0.0750, 0.1771,-0.0289,-0.1510, 1.4942,-1.4045,-2.9219
09-Sep-2020 11:14:24.455, 0.0846, 1.0052, 0.0959, 0.0267,-0.1855,-0.2010, 1.4828,-1.4058,-2.9331
09-Sep-2020 11:14:24.465, 0.0724, 1.0246, 0.0870,-0.1161,-0.3429,-0.2527, 1.4780,-1.4077,-2.9361
09-Sep-2020 11:14:24.476, 0.0663, 1.0331, 0.0560,-0.1992,-0.4765,-0.2850, 1.4798,-1.4102,-2.9308
09-Sep-2020 11:14:24.485, 0.0578, 1.0231, 0.0352,-0.2158,-0.5533,-0.3036, 1.4854,-1.4131,-2.9204
09-Sep-2020 11:14:24.495, 0.0499, 1.0071, 0.0264,-0.1957,-0.5720,-0.3018, 1.4917,-1.4162,-2.9085
09-Sep-2020 11:14:24.505, 0.0471, 1.0084, 0.0276,-0.1774,-0.5619,-0.2930, 1.4970,-1.4193,-2.8974
09-Sep-2020 11:14:24.515, 0.0444, 1.0139, 0.0274,-0.1775,-0.5624,-0.2832, 1.5016,-1.4222,-2.8871
09-Sep-2020 11:14:24.524, 0.0443, 1.0116, 0.0225,-0.1926,-0.5984,-0.2595, 1.5063,-1.4251,-2.8767
09-Sep-2020 11:14:24.535, 0.0457, 1.0120, 0.0142,-0.2104,-0.6654,-0.2277, 1.5121,-1.4277,-2.8647
09-Sep-2020 11:14:24.544, 0.0406, 0.9915,-0.0006,-0.2165,-0.7501,-0.1976, 1.5190,-1.4300,-2.8511
09-Sep-2020 11:14:24.554, 0.0456, 0.9750,-0.0045,-0.2327,-0.8102,-0.1753, 1.5260,-1.4320,-2.8365
09-Sep-2020 11:14:24.565, 0.0709, 0.9800, 0.0014,-0.2351,-0.8235,-0.1550, 1.5339,-1.4338,-2.8204
09-Sep-2020 11:14:24.574, 0.0956, 0.9809,-0.0018,-0.2103,-0.8162,-0.1577, 1.5420,-1.4354,-2.8039
09-Sep-2020 11:14:24.584, 0.1170, 0.9773,-0.0031,-0.1813,-0.7858,-0.1611, 1.5489,-1.4369,-2.7888
09-Sep-2020 11:14:24.594, 0.1370, 0.9780, 0.0080,-0.1743,-0.7263,-0.1771, 1.5543,-1.4385,-2.7755
09-Sep-2020 11:14:24.604, 0.1629, 0.9848, 0.0143,-0.1821,-0.6530,-0.1811, 1.5597,-1.4402,-2.7627
09-Sep-2020 11:14:24.614, 0.1838, 0.9935, 0.0157,-0.1916,-0.6016,-0.1713, 1.5667,-1.4419,-2.7491
09-Sep-2020 11:14:24.624, 0.1925, 0.9864, 0.0125,-0.1958,-0.5652,-0.1631, 1.5752,-1.4436,-2.7344
09-Sep-2020 11:14:24.634, 0.1924, 0.9733, 0.0159,-0.2012,-0.5392,-0.1656, 1.5848,-1.4451,-2.7190
09-Sep-2020 11:14:24.644, 0.1926, 0.9559, 0.0180,-0.1691,-0.4855,-0.1435, 1.5952,-1.4466,-2.7031
09-Sep-2020 11:14:24.654, 0.1867, 0.9509, 0.0162,-0.1276,-0.3776,-0.1281, 1.6041,-1.4479,-2.6894
09-Sep-2020 11:14:24.664, 0.1926, 0.9755, 0.0118,-0.0836,-0.2656,-0.1289, 1.6107,-1.4491,-2.6789
09-Sep-2020 11:14:24.674, 0.1998, 0.9788, 0.0060,-0.0403,-0.1585,-0.1003, 1.6150,-1.4503,-2.6719
09-Sep-2020 11:14:24.684, 0.2005, 0.9933, 0.0127,-0.0017,-0.0210,-0.1041, 1.6168,-1.4512,-2.6686
09-Sep-2020 11:14:24.693, 0.2002, 0.9978, 0.0183, 0.0303, 0.1057,-0.1227, 1.6168,-1.4522,-2.6683
09-Sep-2020 11:14:24.704, 0.1976, 0.9871, 0.0234, 0.0428, 0.1818,-0.1344, 1.6155,-1.4533,-2.6706
09-Sep-2020 11:14:24.714, 0.1907, 0.9922, 0.0252, 0.0400, 0.1647,-0.1265, 1.6138,-1.4546,-2.6741
09-Sep-2020 11:14:24.723, 0.1740, 0.9972, 0.0236, 0.0520, 0.0296,-0.0774, 1.6118,-1.4558,-2.6777
09-Sep-2020 11:14:24.733, 0.1428, 1.0066, 0.0312, 0.0519,-0.1736,-0.0285, 1.6074,-1.4565,-2.6823
09-Sep-2020 11:14:24.743, 0.1078, 1.0152, 0.0589, 0.0017,-0.3494,-0.0306, 1.6014,-1.4567,-2.6868
09-Sep-2020 11:14:24.753, 0.0890, 1.0194, 0.0755,-0.0729,-0.5122,-0.0748, 1.5977,-1.4570,-2.6870
09-Sep-2020 11:14:24.763, 0.0872, 1.0051, 0.0846,-0.1598,-0.6022,-0.0967, 1.5989,-1.4577,-2.6806
09-Sep-2020 11:14:24.773, 0.0888, 0.9920, 0.0826,-0.2220,-0.6536,-0.1069, 1.6066,-1.4585,-2.6668
09-Sep-2020 11:14:24.783, 0.0886, 0.9828, 0.0652,-0.2296,-0.6540,-0.0800, 1.6194,-1.4594,-2.6474
09-Sep-2020 11:14:24.793, 0.0714, 0.9693, 0.0534,-0.1876,-0.6678,-0.0525, 1.6333,-1.4600,-2.6269
09-Sep-2020 11:14:24.803, 0.0501, 0.9745, 0.0371,-0.1281,-0.6861,-0.0521, 1.6432,-1.4603,-2.6102
09-Sep-2020 11:14:24.813, 0.0482, 1.0057, 0.0481,-0.1449,-0.6792,-0.0686, 1.6483,-1.4607,-2.5982
09-Sep-2020 11:14:24.823, 0.0497, 1.0111, 0.0426,-0.2152,-0.6630,-0.0938, 1.6549,-1.4612,-2.5848
09-Sep-2020 11:14:24.833, 0.0433, 1.0003, 0.0422,-0.3157,-0.5881,-0.1354, 1.6683,-1.4619,-2.5647
09-Sep-2020 11:14:24.843, 0.0476, 1.0054, 0.0339,-0.4008,-0.4242,-0.1784, 1.6920,-1.4628,-2.5350
09-Sep-2020 11:14:24.856, 0.0494, 1.0040, 0.0391,-0.4728,-0.0283,-0.1430, 1.7258,-1.4640,-2.4968
09-Sep-2020 11:14:24.863, 0.0210, 0.9617, 0.0578,-0.4509, 0.3565,-0.0761, 1.7708,-1.4644,-2.4513
09-Sep-2020 11:14:24.873,-0.0082, 0.9855,-0.0624,-0.1111, 0.3715,-0.2141, 1.8148,-1.4643,-2.4106
09-Sep-2020 11:14:24.882, 0.0103, 1.0033,-0.0252, 0.1447, 0.2792,-0.3173, 1.8337,-1.4660,-2.3954
09-Sep-2020 11:14:24.893, 0.0446, 0.9996, 0.0340, 0.2385, 0.1169,-0.3437, 1.8311,-1.4692,-2.4007
09-Sep-2020 11:14:24.903, 0.0796, 0.9857, 0.0778, 0.1503,-0.0485,-0.3051, 1.8184,-1.4730,-2.4146
09-Sep-2020 11:14:24.913, 0.0961, 0.9844, 0.1000, 0.0033,-0.1425,-0.2607, 1.8103,-1.4763,-2.4224
09-Sep-2020 11:14:24.922, 0.1025, 0.9942, 0.0939,-0.0904,-0.1640,-0.2988, 1.8143,-1.4788,-2.4169
09-Sep-2020 11:14:24.933, 0.1198, 1.0032, 0.0750,-0.0945,-0.1158,-0.3881, 1.8294,-1.4815,-2.4002
09-Sep-2020 11:14:24.942, 0.1614, 0.9973, 0.0594,-0.0691,-0.0271,-0.3917, 1.8493,-1.4848,-2.3790
09-Sep-2020 11:14:24.952, 0.1958, 0.9908, 0.0495,-0.0453, 0.0651,-0.3316, 1.8692,-1.4883,-2.3588
09-Sep-2020 11:14:24.962, 0.2049, 0.9752, 0.0378,-0.0575, 0.1073,-0.2360, 1.8870,-1.4912,-2.3416
09-Sep-2020 11:14:24.972, 0.1970, 0.9670, 0.0195,-0.0621, 0.0472,-0.1557, 1.9035,-1.4932,-2.3260
09-Sep-2020 11:14:24.982, 0.1754, 0.9591, 0.0074,-0.0547,-0.0351,-0.0959, 1.9175,-1.4944,-2.3124
09-Sep-2020 11:14:24.992, 0.1484, 0.9488, 0.0168,-0.0691,-0.0481,-0.0581, 1.9277,-1.4951,-2.3019
09-Sep-2020 11:14:25.002, 0.1305, 0.9643, 0.0178,-0.0457,-0.0824,-0.0787, 1.9374,-1.4953,-2.2917
09-Sep-2020 11:14:25.012, 0.1452, 0.9948, 0.0064, 0.0120,-0.1525,-0.1302, 1.9451,-1.4959,-2.2831
09-Sep-2020 11:14:25.022, 0.1784, 0.9946, 0.0407, 0.0422,-0.1857,-0.0926, 1.9477,-1.4970,-2.2790
09-Sep-2020 11:14:25.032, 0.1835, 0.9906, 0.0633, 0.0474,-0.2284,-0.0190, 1.9444,-1.4979,-2.2804
09-Sep-2020 11:14:25.042, 0.1656, 0.9923, 0.0725, 0.0293,-0.2861, 0.0283, 1.9366,-1.4982,-2.2859
09-Sep-2020 11:14:25.052, 0.1372, 0.9962, 0.0819, 0.0047,-0.3384, 0.0603, 1.9280,-1.4980,-2.2916
09-Sep-2020 11:14:25.062, 0.1140, 1.0098, 0.0840,-0.0237,-0.3848, 0.0903, 1.9206,-1.4974,-2.2957
09-Sep-2020 11:14:25.072, 0.0968, 1.0233, 0.0845,-0.0339,-0.4368, 0.0989, 1.9114,-1.4960,-2.3011
09-Sep-2020 11:14:25.082, 0.0870, 1.0273, 0.0805,-0.0320,-0.5045, 0.0898, 1.9058,-1.4950,-2.3023
09-Sep-2020 11:14:25.092, 0.0720, 1.0032, 0.1014,-0.0784,-0.4735, 0.0725, 1.9007,-1.4939,-2.3025
09-Sep-2020 11:14:25.102, 0.0696, 0.9785, 0.0858,-0.1129,-0.4035, 0.0805, 1.9016,-1.4929,-2.2968
09-Sep-2020 11:14:25.112, 0.0633, 0.9725, 0.0640,-0.1212,-0.2964, 0.0785, 1.9070,-1.4918,-2.2875
09-Sep-2020 11:14:25.122, 0.0627, 0.9730, 0.0438,-0.0997,-0.2068, 0.0741, 1.9142,-1.4906,-2.2773
09-Sep-2020 11:14:25.132, 0.0746, 0.9734, 0.0349,-0.0569,-0.1208, 0.0807, 1.9197,-1.4895,-2.2696
09-Sep-2020 11:14:25.142, 0.0886, 0.9788, 0.0408,-0.0206,-0.0425, 0.0830, 1.9213,-1.4884,-2.2668
09-Sep-2020 11:14:25.152, 0.0965, 0.9823, 0.0465, 0.0120, 0.0318, 0.0924, 1.9191,-1.4875,-2.2686
09-Sep-2020 11:14:25.161, 0.0999, 0.9840, 0.0555, 0.0370, 0.1040, 0.1067, 1.9137,-1.4867,-2.2743
09-Sep-2020 11:14:25.172, 0.0960, 0.9868, 0.0650, 0.0426, 0.1647, 0.1138, 1.9060,-1.4857,-2.2830
09-Sep-2020 11:14:25.181, 0.0925, 0.9907, 0.0783, 0.0427, 0.2056, 0.1143, 1.8982,-1.4847,-2.2925
09-Sep-2020 11:14:25.191, 0.0916, 0.9932, 0.0936, 0.0339, 0.2299, 0.1101, 1.8909,-1.4838,-2.3019
09-Sep-2020 11:14:25.201, 0.0947, 0.9975, 0.1083, 0.0262, 0.2598, 0.1144, 1.8850,-1.4828,-2.3101
09-Sep-2020 11:14:25.211, 0.1021, 1.0019, 0.1120, 0.0126, 0.2705, 0.1224, 1.8803,-1.4817,-2.3174
09-Sep-2020 11:14:25.221, 0.1096, 1.0027, 0.1094,-0.0019, 0.2586, 0.1364, 1.8770,-1.4805,-2.3234
09-Sep-2020 11:14:25.231, 0.1178, 0.9994, 0.1019,-0.0161, 0.2281, 0.1512, 1.8747,-1.4791,-2.3283
09-Sep-2020 11:14:25.241, 0.1262, 0.9914, 0.0915,-0.0276, 0.1929, 0.1665, 1.8732,-1.4776,-2.3320
09-Sep-2020 11:14:25.251, 0.1368, 0.9845, 0.0839,-0.0349, 0.1541, 0.1770, 1.8722,-1.4759,-2.3350
09-Sep-2020 11:14:25.261, 0.1497, 0.9861, 0.0734,-0.0325, 0.1167, 0.1912, 1.8717,-1.4740,-2.3370
09-Sep-2020 11:14:25.271, 0.1607, 0.9900, 0.0701,-0.0328, 0.0945, 0.2069, 1.8705,-1.4720,-2.3393
09-Sep-2020 11:14:25.281, 0.1662, 0.9939, 0.0702,-0.0375, 0.0784, 0.2266, 1.8692,-1.4699,-2.3417
09-Sep-2020 11:14:25.291, 0.1663, 0.9945, 0.0653,-0.0463, 0.0566, 0.2442, 1.8679,-1.4675,-2.3437
09-Sep-2020 11:14:25.301, 0.1678, 0.9916, 0.0613,-0.0521, 0.0247, 0.2600, 1.8667,-1.4649,-2.3454
09-Sep-2020 11:14:25.311, 0.1659, 0.9847, 0.0569,-0.0528,-0.0027, 0.2709, 1.8655,-1.4622,-2.3470
09-Sep-2020 11:14:25.320, 0.1622, 0.9747, 0.0541,-0.0411,-0.0294, 0.2840, 1.8635,-1.4593,-2.3489
09-Sep-2020 11:14:25.331, 0.1584, 0.9689, 0.0503,-0.0263,-0.0561, 0.2953, 1.8599,-1.4564,-2.3522
09-Sep-2020 11:14:25.341, 0.1504, 0.9696, 0.0509,-0.0108,-0.0689, 0.3022, 1.8540,-1.4535,-2.3576
09-Sep-2020 11:14:25.351, 0.1407, 0.9711, 0.0502, 0.0004,-0.0838, 0.3069, 1.8468,-1.4505,-2.3642
09-Sep-2020 11:14:25.360, 0.1315, 0.9794, 0.0491, 0.0095,-0.0946, 0.3028, 1.8387,-1.4475,-2.3715
09-Sep-2020 11:14:25.371, 0.1213, 0.9856, 0.0512, 0.0154,-0.0927, 0.2941, 1.8303,-1.4446,-2.3790
09-Sep-2020 11:14:25.380, 0.1097, 0.9890, 0.0590, 0.0245,-0.0757, 0.2752, 1.8221,-1.4417,-2.3864
09-Sep-2020 11:14:25.390, 0.0991, 0.9917, 0.0660, 0.0274,-0.0391, 0.2527, 1.8141,-1.4390,-2.3937
09-Sep-2020 11:14:25.400, 0.0950, 0.9927, 0.0669, 0.0351,-0.0003, 0.2319, 1.8068,-1.4366,-2.4006
09-Sep-2020 11:14:25.410, 0.0928, 0.9905, 0.0694, 0.0439, 0.0416, 0.2132, 1.8000,-1.4344,-2.4075
09-Sep-2020 11:14:25.420, 0.0954, 0.9908, 0.0730, 0.0472, 0.0804, 0.1930, 1.7936,-1.4323,-2.4143
09-Sep-2020 11:14:25.430, 0.0999, 0.9946, 0.0770, 0.0420, 0.1122, 0.1778, 1.7879,-1.4305,-2.4209
09-Sep-2020 11:14:25.440, 0.1037, 0.9983, 0.0832, 0.0245, 0.1266, 0.1670, 1.7832,-1.4288,-2.4268
09-Sep-2020 11:14:25.450, 0.1099, 1.0009, 0.0839, 0.0023, 0.1360, 0.1538, 1.7800,-1.4272,-2.4312
09-Sep-2020 11:14:25.460, 0.1173, 1.0001, 0.0761,-0.0270, 0.1387, 0.1429, 1.7788,-1.4256,-2.4338
09-Sep-2020 11:14:25.470, 0.1241, 0.9962, 0.0618,-0.0488, 0.1237, 0.1379, 1.7796,-1.4241,-2.4344
09-Sep-2020 11:14:25.480, 0.1304, 0.9903, 0.0461,-0.0542, 0.0987, 0.1357, 1.7817,-1.4226,-2.4335
09-Sep-2020 11:14:25.490, 0.1323, 0.9826, 0.0321,-0.0486, 0.0630, 0.1350, 1.7845,-1.4212,-2.4316
09-Sep-2020 11:14:25.499, 0.1336, 0.9787, 0.0207,-0.0340, 0.0089, 0.1324, 1.7865,-1.4198,-2.4302
09-Sep-2020 11:14:25.510, 0.1311, 0.9794, 0.0170,-0.0154,-0.0459, 0.1276, 1.7871,-1.4185,-2.4297
09-Sep-2020 11:14:25.519, 0.1263, 0.9814, 0.0277,-0.0013,-0.0936, 0.1248, 1.7862,-1.4173,-2.4302
09-Sep-2020 11:14:25.529, 0.1206, 0.9858, 0.0457, 0.0035,-0.1305, 0.1188, 1.7841,-1.4161,-2.4314
09-Sep-2020 11:14:25.540, 0.1144, 0.9949, 0.0629, 0.0045,-0.1737, 0.1148, 1.7814,-1.4149,-2.4328
09-Sep-2020 11:14:25.549, 0.1092, 1.0020, 0.0777,-0.0078,-0.2183, 0.1093, 1.7783,-1.4138,-2.4341
09-Sep-2020 11:14:25.559, 0.1054, 1.0041, 0.0893,-0.0257,-0.2765, 0.1018, 1.7754,-1.4127,-2.4349
09-Sep-2020 11:14:25.569, 0.1064, 1.0005, 0.0937,-0.0472,-0.3521, 0.0980, 1.7728,-1.4117,-2.4348
09-Sep-2020 11:14:25.579, 0.1138, 0.9955, 0.0925,-0.0693,-0.4265, 0.0857, 1.7706,-1.4106,-2.4334
09-Sep-2020 11:14:25.589, 0.1255, 0.9885, 0.0897,-0.0825,-0.4867, 0.0771, 1.7690,-1.4096,-2.4307
09-Sep-2020 11:14:25.599, 0.1381, 0.9818, 0.0876,-0.0927,-0.5281, 0.0603, 1.7677,-1.4087,-2.4271
09-Sep-2020 11:14:25.609, 0.1508, 0.9785, 0.0864,-0.0968,-0.5621, 0.0446, 1.7669,-1.4079,-2.4227
09-Sep-2020 11:14:25.619, 0.1605, 0.9783, 0.0874,-0.1017,-0.5829, 0.0296, 1.7663,-1.4072,-2.4176
09-Sep-2020 11:14:25.629, 0.1688, 0.9807, 0.0905,-0.1057,-0.5978, 0.0151, 1.7658,-1.4067,-2.4122
09-Sep-2020 11:14:25.639, 0.1784, 0.9823, 0.0969,-0.1111,-0.5977, 0.0001, 1.7656,-1.4063,-2.4064
09-Sep-2020 11:14:25.649, 0.1866, 0.9792, 0.1012,-0.1191,-0.5742,-0.0164, 1.7659,-1.4060,-2.4000
09-Sep-2020 11:14:25.659, 0.1962, 0.9735, 0.1015,-0.1168,-0.5258,-0.0247, 1.7670,-1.4059,-2.3931
09-Sep-2020 11:14:25.669, 0.2068, 0.9655, 0.0976,-0.1113,-0.4700,-0.0354, 1.7686,-1.4058,-2.3862
09-Sep-2020 11:14:25.679, 0.2139, 0.9589, 0.0876,-0.0890,-0.3983,-0.0408, 1.7704,-1.4059,-2.3796
09-Sep-2020 11:14:25.689, 0.2266, 0.9536, 0.0799,-0.0626,-0.3196,-0.0324, 1.7718,-1.4060,-2.3742
09-Sep-2020 11:14:25.699, 0.2397, 0.9494, 0.0739,-0.0402,-0.2300,-0.0218, 1.7725,-1.4062,-2.3703
09-Sep-2020 11:14:25.709, 0.2535, 0.9445, 0.0702,-0.0186,-0.1550,-0.0049, 1.7725,-1.4062,-2.3679
09-Sep-2020 11:14:25.719, 0.2609, 0.9469, 0.0692, 0.0007,-0.0857,-0.0073, 1.7719,-1.4062,-2.3670
09-Sep-2020 11:14:25.729, 0.2709, 0.9564, 0.0715, 0.0209,-0.0202,-0.0076, 1.7707,-1.4062,-2.3672
09-Sep-2020 11:14:25.739, 0.2830, 0.9570, 0.0702, 0.0387, 0.0388,-0.0144, 1.7692,-1.4062,-2.3686
09-Sep-2020 11:14:25.749, 0.2905, 0.9536, 0.0692, 0.0664, 0.0941,-0.0181, 1.7671,-1.4064,-2.3711
09-Sep-2020 11:14:25.758, 0.2958, 0.9474, 0.0676, 0.0909, 0.1411,-0.0231, 1.7641,-1.4066,-2.3750
09-Sep-2020 11:14:25.769, 0.2976, 0.9369, 0.0688, 0.1135, 0.1831,-0.0204, 1.7601,-1.4070,-2.3805
09-Sep-2020 11:14:25.778, 0.2942, 0.9331, 0.0717, 0.1297, 0.2128,-0.0265, 1.7552,-1.4073,-2.3873
09-Sep-2020 11:14:25.788, 0.2894, 0.9388, 0.0757, 0.1404, 0.2520,-0.0314, 1.7497,-1.4077,-2.3950
09-Sep-2020 11:14:25.798, 0.2784, 0.9530, 0.0753, 0.1540, 0.2910,-0.0393, 1.7438,-1.4082,-2.4035
09-Sep-2020 11:14:25.808, 0.2664, 0.9607, 0.0759, 0.1674, 0.3387,-0.0423, 1.7376,-1.4088,-2.4127
09-Sep-2020 11:14:25.818, 0.2516, 0.9624, 0.0762, 0.1791, 0.3998,-0.0462, 1.7311,-1.4094,-2.4227
09-Sep-2020 11:14:25.828, 0.2388, 0.9617, 0.0756, 0.1931, 0.4620,-0.0498, 1.7250,-1.4094,-2.4329
09-Sep-2020 11:14:25.838, 0.2305, 0.9645, 0.0724, 0.2021, 0.5189,-0.0531, 1.7189,-1.4092,-2.4437
09-Sep-2020 11:14:25.848, 0.2227, 0.9652, 0.0691, 0.2040, 0.5636,-0.0563, 1.7129,-1.4090,-2.4551
09-Sep-2020 11:14:25.858, 0.2135, 0.9642, 0.0685, 0.2149, 0.5882,-0.0590, 1.7063,-1.4098,-2.4674
09-Sep-2020 11:14:25.868, 0.2050, 0.9657, 0.0703, 0.2202, 0.5944,-0.0595, 1.6993,-1.4106,-2.4805
09-Sep-2020 11:14:25.878, 0.1979, 0.9717, 0.0719, 0.2201, 0.5892,-0.0543, 1.6918,-1.4114,-2.4939
09-Sep-2020 11:14:25.888, 0.1914, 0.9743, 0.0736, 0.2187, 0.5737,-0.0478, 1.6842,-1.4121,-2.5075
09-Sep-2020 11:14:25.898, 0.1862, 0.9748, 0.0720, 0.2171, 0.5535,-0.0358, 1.6765,-1.4127,-2.5211
09-Sep-2020 11:14:25.908, 0.1844, 0.9731, 0.0681, 0.2085, 0.5221,-0.0245, 1.6686,-1.4132,-2.5347
09-Sep-2020 11:14:25.918, 0.1827, 0.9751, 0.0654, 0.2028, 0.5013,-0.0140, 1.6606,-1.4136,-2.5480
09-Sep-2020 11:14:25.927, 0.1820, 0.9782, 0.0598, 0.1956, 0.4853,-0.0049, 1.6527,-1.4139,-2.5611
09-Sep-2020 11:14:25.937, 0.1801, 0.9787, 0.0574, 0.1897, 0.4755, 0.0006, 1.6451,-1.4140,-2.5737
09-Sep-2020 11:14:25.948, 0.1767, 0.9774, 0.0539, 0.1848, 0.4566, 0.0045, 1.6376,-1.4140,-2.5860
09-Sep-2020 11:14:25.957, 0.1691, 0.9742, 0.0510, 0.1873, 0.4367,-0.0003, 1.6302,-1.4141,-2.5981
09-Sep-2020 11:14:25.968, 0.1606, 0.9707, 0.0527, 0.1917, 0.4145,-0.0052, 1.6225,-1.4141,-2.6103
09-Sep-2020 11:14:25.977, 0.1532, 0.9668, 0.0540, 0.1939, 0.3987,-0.0099, 1.6145,-1.4142,-2.6226
09-Sep-2020 11:14:25.987, 0.1471, 0.9678, 0.0563, 0.1912, 0.3855,-0.0180, 1.6061,-1.4143,-2.6351
09-Sep-2020 11:14:25.997, 0.1461, 0.9707, 0.0560, 0.1779, 0.3779,-0.0239, 1.5977,-1.4145,-2.6475
09-Sep-2020 11:14:26.007, 0.1458, 0.9726, 0.0567, 0.1449, 0.3843,-0.0346, 1.5900,-1.4147,-2.6590
09-Sep-2020 11:14:26.017, 0.1451, 0.9756, 0.0561, 0.1026, 0.4060,-0.0438, 1.5846,-1.4150,-2.6683
09-Sep-2020 11:14:26.027, 0.1498, 0.9755, 0.0459, 0.0836, 0.4337,-0.0461, 1.5819,-1.4154,-2.6752
09-Sep-2020 11:14:26.037, 0.1564, 0.9722, 0.0343, 0.0859, 0.4766,-0.0474, 1.5807,-1.4158,-2.6808
09-Sep-2020 11:14:26.047, 0.1611, 0.9743, 0.0266, 0.1038, 0.5323,-0.0534, 1.5796,-1.4162,-2.6867
09-Sep-2020 11:14:26.057, 0.1719, 0.9775, 0.0164, 0.1233, 0.5657,-0.0624, 1.5781,-1.4167,-2.6935
09-Sep-2020 11:14:26.067, 0.1840, 0.9760, 0.0076, 0.1396, 0.5760,-0.0656, 1.5756,-1.4172,-2.7017
09-Sep-2020 11:14:26.077, 0.1948, 0.9769, 0.0012, 0.1575, 0.5634,-0.0524, 1.5721,-1.4178,-2.7110
09-Sep-2020 11:14:26.087, 0.2015, 0.9754,-0.0031, 0.1781, 0.5433,-0.0338, 1.5672,-1.4182,-2.7216
09-Sep-2020 11:14:26.097, 0.2028, 0.9762,-0.0040, 0.1928, 0.5171,-0.0124, 1.5609,-1.4185,-2.7334
09-Sep-2020 11:14:26.107, 0.1970, 0.9809,-0.0011, 0.1984, 0.4918, 0.0044, 1.5534,-1.4185,-2.7462
09-Sep-2020 11:14:26.117, 0.1888, 0.9875, 0.0031, 0.1993, 0.4859, 0.0148, 1.5452,-1.4183,-2.7595
09-Sep-2020 11:14:26.127, 0.1806, 0.9872, 0.0019, 0.1917, 0.4852, 0.0255, 1.5370,-1.4181,-2.7727
09-Sep-2020 11:14:26.137, 0.1730, 0.9810,-0.0094, 0.1857, 0.4651, 0.0323, 1.5293,-1.4177,-2.7853
09-Sep-2020 11:14:26.147, 0.1640, 0.9807,-0.0195, 0.1733, 0.4374, 0.0384, 1.5219,-1.4172,-2.7974
09-Sep-2020 11:14:26.156, 0.1547, 0.9826,-0.0214, 0.1676, 0.4214, 0.0315, 1.5151,-1.4166,-2.8088
09-Sep-2020 11:14:26.166, 0.1487, 0.9885,-0.0100, 0.1573, 0.4312, 0.0241, 1.5086,-1.4162,-2.8196
09-Sep-2020 11:14:26.176, 0.1447, 0.9955, 0.0033, 0.1620, 0.4653, 0.0061, 1.5028,-1.4157,-2.8299
09-Sep-2020 11:14:26.186, 0.1397, 0.9977, 0.0103, 0.1757, 0.5078,-0.0147, 1.4969,-1.4155,-2.8404
09-Sep-2020 11:14:26.196, 0.1415, 1.0005, 0.0112, 0.1844, 0.5583,-0.0279, 1.4906,-1.4154,-2.8519
09-Sep-2020 11:14:26.206, 0.1408, 0.9991, 0.0028, 0.1831, 0.5999,-0.0449, 1.4842,-1.4155,-2.8641
09-Sep-2020 11:14:26.216, 0.1386, 0.9946,-0.0113, 0.1789, 0.6255,-0.0525, 1.4781,-1.4157,-2.8762
09-Sep-2020 11:14:26.226, 0.1389, 0.9872,-0.0190, 0.1695, 0.6464,-0.0657, 1.4725,-1.4160,-2.8882
09-Sep-2020 11:14:26.236, 0.1346, 0.9922,-0.0288, 0.1506, 0.6423,-0.0687, 1.4676,-1.4163,-2.8996
09-Sep-2020 11:14:26.246, 0.1299, 1.0007,-0.0393, 0.1328, 0.6201,-0.0778, 1.4637,-1.4168,-2.9100
09-Sep-2020 11:14:26.256, 0.1241, 1.0088,-0.0534, 0.1203, 0.5662,-0.0798, 1.4607,-1.4173,-2.9192
09-Sep-2020 11:14:26.266, 0.1151, 1.0165,-0.0628, 0.1117, 0.4949,-0.0836, 1.4578,-1.4179,-2.9279
09-Sep-2020 11:14:26.276, 0.0978, 1.0213,-0.0668, 0.1170, 0.4150,-0.1028, 1.4546,-1.4185,-2.9361
09-Sep-2020 11:14:26.286, 0.0825, 1.0199,-0.0659, 0.1179, 0.3300,-0.1138, 1.4502,-1.4193,-2.9447
09-Sep-2020 11:14:26.296, 0.0713, 1.0179,-0.0609, 0.1196, 0.2508,-0.1260, 1.4448,-1.4202,-2.9535
09-Sep-2020 11:14:26.306, 0.0660, 1.0110,-0.0511, 0.1171, 0.1902,-0.1246, 1.4382,-1.4213,-2.9627
09-Sep-2020 11:14:26.316, 0.0695, 1.0026,-0.0445, 0.1090, 0.1406,-0.1135, 1.4311,-1.4223,-2.9718
09-Sep-2020 11:14:26.326, 0.0847, 0.9962,-0.0356, 0.0925, 0.0951,-0.1043, 1.4240,-1.4231,-2.9804
09-Sep-2020 11:14:26.335, 0.1259, 0.9964,-0.0261, 0.0670, 0.0463,-0.0942, 1.4176,-1.4240,-2.9878
09-Sep-2020 11:14:26.345, 0.1752, 0.9943,-0.0135, 0.0393, 0.0233,-0.0773, 1.4125,-1.4247,-2.9934
09-Sep-2020 11:14:26.356, 0.2094, 0.9877,-0.0033, 0.0144, 0.0326,-0.0411, 1.4093,-1.4253,-2.9969
09-Sep-2020 11:14:26.366, 0.2286, 0.9826,-0.0030,-0.0056, 0.0607,-0.0086, 1.4081,-1.4256,-2.9984
09-Sep-2020 11:14:26.376, 0.2344, 0.9816,-0.0109,-0.0111, 0.0943, 0.0098, 1.4088,-1.4257,-2.9983
09-Sep-2020 11:14:26.385, 0.2334, 0.9781,-0.0191, 0.0001, 0.1410, 0.0157, 1.4104,-1.4255,-2.9977
09-Sep-2020 11:14:26.395, 0.2268, 0.9733,-0.0269, 0.0195, 0.1800,-0.0008, 1.4118,-1.4253,-2.9977
09-Sep-2020 11:14:26.405, 0.2157, 0.9731,-0.0384, 0.0583, 0.2113,-0.0296, 1.4120,-1.4252,-2.9993
09-Sep-2020 11:14:26.415, 0.2010, 0.9746,-0.0388, 0.0931, 0.2441,-0.0474, 1.4094,-1.4254,-3.0040
09-Sep-2020 11:14:26.425, 0.1855, 0.9734,-0.0306, 0.1152, 0.2694,-0.0435, 1.4047,-1.4257,-3.0112
09-Sep-2020 11:14:26.436, 0.1687, 0.9784,-0.0185, 0.1208, 0.2651,-0.0493, 1.3990,-1.4259,-3.0196
09-Sep-2020 11:14:26.445, 0.1560, 0.9820,-0.0054, 0.1090, 0.2415,-0.0682, 1.3931,-1.4260,-3.0282
09-Sep-2020 11:14:26.455, 0.1474, 0.9812, 0.0042, 0.0972, 0.2140,-0.0835, 1.3876,-1.4262,-3.0362
09-Sep-2020 11:14:26.466, 0.1493, 0.9804, 0.0105, 0.0969, 0.1875,-0.0969, 1.3824,-1.4266,-3.0436
09-Sep-2020 11:14:26.475, 0.1546, 0.9833, 0.0174, 0.1017, 0.1765,-0.1058, 1.3766,-1.4271,-3.0514
09-Sep-2020 11:14:26.485, 0.1600, 0.9864, 0.0247, 0.1062, 0.1751,-0.1180, 1.3701,-1.4277,-3.0597
09-Sep-2020 11:14:26.495, 0.1653, 0.9879, 0.0293, 0.1079, 0.1797,-0.1312, 1.3629,-1.4284,-3.0687
09-Sep-2020 11:14:26.505, 0.1652, 0.9878, 0.0306, 0.0977, 0.1757,-0.1391, 1.3554,-1.4292,-3.0781
09-Sep-2020 11:14:26.515, 0.1606, 0.9879, 0.0271, 0.0806, 0.1549,-0.1427, 1.3482,-1.4302,-3.0871
09-Sep-2020 11:14:26.525, 0.1582, 0.9862, 0.0168, 0.0589, 0.1088,-0.1437, 1.3420,-1.4312,-3.0950
09-Sep-2020 11:14:26.535, 0.1578, 0.9854, 0.0042, 0.0435, 0.0539,-0.1442, 1.3368,-1.4324,-3.1012
09-Sep-2020 11:14:26.544, 0.1588, 0.9872,-0.0054, 0.0322,-0.0076,-0.1507, 1.3322,-1.4336,-3.1064
09-Sep-2020 11:14:26.554, 0.1601, 0.9898,-0.0067, 0.0267,-0.0481,-0.1584, 1.3277,-1.4348,-3.1109
09-Sep-2020 11:14:26.565, 0.1579, 0.9902,-0.0027, 0.0285,-0.0592,-0.1718, 1.3230,-1.4362,-3.1152
09-Sep-2020 11:14:26.574, 0.1622, 0.9873, 0.0016, 0.0206,-0.0634,-0.1736, 1.3180,-1.4377,-3.1196
09-Sep-2020 11:14:26.584, 0.1633, 0.9828, 0.0104, 0.0083,-0.0559,-0.1772, 1.3135,-1.4392,-3.1235
09-Sep-2020 11:14:26.594, 0.1571, 0.9847, 0.0157,-0.0097,-0.0632,-0.1909, 1.3099,-1.4407,-3.1266
09-Sep-2020 11:14:26.605, 0.1562, 0.9891, 0.0099,-0.0237,-0.0810,-0.2051, 1.3070,-1.4425,-3.1289
09-Sep-2020 11:14:26.615, 0.1622, 0.9914, 0.0001,-0.0276,-0.1146,-0.2232, 1.3044,-1.4444,-3.1307
09-Sep-2020 11:14:26.624, 0.1715, 0.9893,-0.0135,-0.0383,-0.1536,-0.2369, 1.3013,-1.4465,-3.1327
09-Sep-2020 11:14:26.634, 0.1777, 0.9845,-0.0257,-0.0469,-0.1892,-0.2492, 1.2981,-1.4487,-3.1344
09-Sep-2020 11:14:26.644, 0.1836, 0.9805,-0.0351,-0.0441,-0.2196,-0.2570, 1.2947,-1.4511,-3.1359
09-Sep-2020 11:14:26.654, 0.1861, 0.9754,-0.0393,-0.0354,-0.2399,-0.2618, 1.2906,-1.4535,-3.1378
09-Sep-2020 11:14:26.664, 0.1817, 0.9728,-0.0351,-0.0205,-0.2508,-0.2684, 1.2855,-1.4559,-3.1406
09-Sep-2020 11:14:26.674, 0.1741, 0.9728,-0.0227,-0.0129,-0.2594,-0.2730, 1.2788,-1.4584, 3.1383
09-Sep-2020 11:14:26.684, 0.1659, 0.9769,-0.0053,-0.0267,-0.2747,-0.2843, 1.2712,-1.4609, 3.1333
09-Sep-2020 11:14:26.694, 0.1592, 0.9811, 0.0024,-0.0481,-0.3075,-0.3024, 1.2638,-1.4635, 3.1287
09-Sep-2020 11:14:26.704, 0.1579, 0.9832,-0.0052,-0.0627,-0.3454,-0.3136, 1.2572,-1.4664, 3.1250
09-Sep-2020 11:14:26.714, 0.1565, 0.9820,-0.0118,-0.0686,-0.3745,-0.3322, 1.2498,-1.4695, 3.1211
09-Sep-2020 11:14:26.724, 0.1548, 0.9845,-0.0135,-0.0785,-0.3921,-0.3540, 1.2419,-1.4727, 3.1169
09-Sep-2020 11:14:26.734, 0.1565, 0.9852,-0.0147,-0.0938,-0.4006,-0.3715, 1.2336,-1.4762, 3.1125
09-Sep-2020 11:14:26.744, 0.1600, 0.9839,-0.0199,-0.1146,-0.4220,-0.3894, 1.2257,-1.4800, 3.1085
09-Sep-2020 11:14:26.754, 0.1683, 0.9802,-0.0309,-0.1354,-0.4526,-0.4012, 1.2185,-1.4839, 3.1056
09-Sep-2020 11:14:26.764, 0.1780, 0.9795,-0.0449,-0.1476,-0.4838,-0.4088, 1.2122,-1.4880, 3.1038
09-Sep-2020 11:14:26.774, 0.1942, 0.9869,-0.0532,-0.1618,-0.5020,-0.4046, 1.2065,-1.4923, 3.1030
09-Sep-2020 11:14:26.784, 0.2156, 1.0053,-0.0631,-0.1816,-0.5033,-0.3742, 1.2024,-1.4965, 3.1038
09-Sep-2020 11:14:26.794, 0.2384, 1.0258,-0.0706,-0.2082,-0.4957,-0.3222, 1.2023,-1.5005, 3.1087
09-Sep-2020 11:14:26.803, 0.2547, 1.0380,-0.0856,-0.2290,-0.4868,-0.2488, 1.2088,-1.5042, 3.1202
09-Sep-2020 11:14:26.814, 0.2685, 1.0355,-0.1027,-0.2292,-0.4849,-0.1571, 1.2233,-1.5072, 3.1396
09-Sep-2020 11:14:26.823, 0.2808, 1.0267,-0.1057,-0.2258,-0.4526,-0.0691, 1.2446,-1.5093,-3.1174
09-Sep-2020 11:14:26.834, 0.2863, 1.0278,-0.0903,-0.2295,-0.3806, 0.0148, 1.2716,-1.5106,-3.0858
09-Sep-2020 11:14:26.843, 0.2862, 1.0333,-0.0622,-0.2279,-0.2968, 0.0840, 1.3045,-1.5110,-3.0491
09-Sep-2020 11:14:26.855, 0.2663, 1.0303,-0.0320,-0.2077,-0.2623, 0.1452, 1.3412,-1.5107,-3.0093
09-Sep-2020 11:14:26.863, 0.2311, 1.0132, 0.0036,-0.1966,-0.2933, 0.2221, 1.3770,-1.5096,-2.9708
09-Sep-2020 11:14:26.873, 0.1873, 1.0011, 0.0505,-0.2292,-0.4020, 0.2839, 1.4115,-1.5077,-2.9332
09-Sep-2020 11:14:26.883, 0.1424, 0.9915, 0.1046,-0.3188,-0.5638, 0.3231, 1.4487,-1.5052,-2.8919
09-Sep-2020 11:14:26.893, 0.1070, 0.9892, 0.1567,-0.4740,-0.7704, 0.3599, 1.4951,-1.5022,-2.8397
09-Sep-2020 11:14:26.903, 0.0846, 0.9935, 0.1940,-0.6417,-0.9893, 0.3935, 1.5563,-1.4988,-2.7707
09-Sep-2020 11:14:26.913, 0.0706, 1.0188, 0.2110,-0.7973,-1.2375, 0.4370, 1.6306,-1.4947,-2.6862
09-Sep-2020 11:14:26.923, 0.0511, 1.0650, 0.2035,-0.9320,-1.5411, 0.4573, 1.7121,-1.4895,-2.5921
09-Sep-2020 11:14:26.933, 0.0264, 1.1078, 0.1983,-1.0511,-1.8326, 0.4479, 1.7942,-1.4833,-2.4943
09-Sep-2020 11:14:26.942,-0.0009, 1.1353, 0.2121,-1.1373,-2.0052, 0.4068, 1.8732,-1.4762,-2.3967
09-Sep-2020 11:14:26.952,-0.0302, 1.1474, 0.1903,-1.1478,-2.1397, 0.3445, 1.9467,-1.4686,-2.3029
09-Sep-2020 11:14:26.963,-0.0564, 1.1444, 0.1522,-1.0915,-2.2136, 0.2654, 2.0102,-1.4609,-2.2176
09-Sep-2020 11:14:26.972,-0.0690, 1.1326, 0.1543,-1.0047,-2.2227, 0.2027, 2.0621,-1.4536,-2.1431
09-Sep-2020 11:14:26.982,-0.0452, 1.0956, 0.1686,-0.9162,-2.2040, 0.2076, 2.1030,-1.4468,-2.0797
09-Sep-2020 11:14:26.992, 0.0016, 1.0503, 0.2144,-0.8735,-2.1098, 0.2612, 2.1331,-1.4402,-2.0273
09-Sep-2020 11:14:27.002, 0.0425, 1.0448, 0.2749,-0.8733,-1.8672, 0.2848, 2.1556,-1.4333,-1.9835
09-Sep-2020 11:14:27.012, 0.0627, 1.0661, 0.2977,-0.8829,-1.5398, 0.2501, 2.1762,-1.4261,-1.9439
09-Sep-2020 11:14:27.022, 0.0717, 1.0729, 0.2691,-0.8738,-1.1723, 0.2024, 2.1987,-1.4189,-1.9057
09-Sep-2020 11:14:27.032, 0.0583, 1.0642, 0.2270,-0.8416,-0.7639, 0.1294, 2.2235,-1.4121,-1.8688
09-Sep-2020 11:14:27.042, 0.0235, 1.0437, 0.1904,-0.7834,-0.3395, 0.0452, 2.2509,-1.4059,-1.8333
09-Sep-2020 11:14:27.052,-0.0029, 1.0214, 0.1445,-0.6989, 0.0344,-0.0324, 2.2807,-1.4005,-1.7996
09-Sep-2020 11:14:27.062,-0.0263, 0.9984, 0.1132,-0.6130, 0.3120,-0.1125, 2.3118,-1.3962,-1.7684
09-Sep-2020 11:14:27.072,-0.0360, 0.9756, 0.0957,-0.5483, 0.4587,-0.1701, 2.3436,-1.3927,-1.7391
09-Sep-2020 11:14:27.082,-0.0260, 0.9499, 0.0813,-0.4989, 0.4758,-0.1961, 2.3755,-1.3900,-1.7112
09-Sep-2020 11:14:27.092,-0.0203, 0.9322, 0.0658,-0.4566, 0.3681,-0.1995, 2.4059,-1.3877,-1.6851
09-Sep-2020 11:14:27.102,-0.0215, 0.9245, 0.0645,-0.4130, 0.1836,-0.1956, 2.4333,-1.3855,-1.6608
09-Sep-2020 11:14:27.112,-0.0240, 0.9289, 0.0631,-0.3468,-0.0622,-0.1866, 2.4565,-1.3836,-1.6390
09-Sep-2020 11:14:27.122,-0.0192, 0.9353, 0.0735,-0.2753,-0.3366,-0.1615, 2.4744,-1.3821,-1.6201
09-Sep-2020 11:14:27.132,-0.0064, 0.9345, 0.1064,-0.2030,-0.5634,-0.1160, 2.4861,-1.3809,-1.6049
09-Sep-2020 11:14:27.142, 0.0130, 0.9311, 0.1368,-0.1394,-0.7639,-0.0627, 2.4912,-1.3800,-1.5940
09-Sep-2020 11:14:27.152, 0.0296, 0.9305, 0.1662,-0.1117,-0.9046,-0.0355, 2.4903,-1.3792,-1.5872
09-Sep-2020 11:14:27.162, 0.0365, 0.9299, 0.1979,-0.1043,-0.9564,-0.0431, 2.4860,-1.3785,-1.5824
09-Sep-2020 11:14:27.172, 0.0427, 0.9351, 0.2097,-0.0970,-0.9250,-0.0677, 2.4813,-1.3780,-1.5776
09-Sep-2020 11:14:27.182, 0.0477, 0.9415, 0.2141,-0.0762,-0.8070,-0.1037, 2.4774,-1.3776,-1.5722
09-Sep-2020 11:14:27.192, 0.0507, 0.9436, 0.2124,-0.0502,-0.6374,-0.1350, 2.4755,-1.3776,-1.5660
09-Sep-2020 11:14:27.202, 0.0549, 0.9420, 0.2113,-0.0267,-0.4508,-0.1636, 2.4757,-1.3781,-1.5594
09-Sep-2020 11:14:27.212, 0.0627, 0.9386, 0.2101,-0.0090,-0.2683,-0.1812, 2.4783,-1.3788,-1.5522
09-Sep-2020 11:14:27.222, 0.0690, 0.9358, 0.2094, 0.0001,-0.1000,-0.1895, 2.4828,-1.3798,-1.5448
09-Sep-2020 11:14:27.232, 0.0770, 0.9303, 0.2027, 0.0127, 0.0347,-0.1940, 2.4892,-1.3810,-1.5373
09-Sep-2020 11:14:27.241, 0.0834, 0.9278, 0.1916, 0.0360, 0.1336,-0.1914, 2.4967,-1.3822,-1.5300
09-Sep-2020 11:14:27.251, 0.0912, 0.9306, 0.1823, 0.0699, 0.1950,-0.1917, 2.5045,-1.3836,-1.5233
09-Sep-2020 11:14:27.261, 0.1024, 0.9358, 0.1763, 0.1063, 0.2253,-0.1881, 2.5119,-1.3853,-1.5177
09-Sep-2020 11:14:27.271, 0.1112, 0.9436, 0.1771, 0.1375, 0.2366,-0.1830, 2.5186,-1.3873,-1.5132
09-Sep-2020 11:14:27.281, 0.1172, 0.9488, 0.1858, 0.1548, 0.2205,-0.1805, 2.5242,-1.3894,-1.5098
09-Sep-2020 11:14:27.291, 0.1271, 0.9531, 0.1982, 0.1540, 0.1961,-0.1704, 2.5291,-1.3917,-1.5070
09-Sep-2020 11:14:27.301, 0.1329, 0.9554, 0.2127, 0.1320, 0.1693,-0.1594, 2.5335,-1.3939,-1.5046
09-Sep-2020 11:14:27.311, 0.1366, 0.9523, 0.2272, 0.0940, 0.1553,-0.1475, 2.5379,-1.3958,-1.5018
09-Sep-2020 11:14:27.321, 0.1375, 0.9469, 0.2443, 0.0458, 0.1326,-0.1225, 2.5428,-1.3974,-1.4984
09-Sep-2020 11:14:27.331, 0.1271, 0.9487, 0.2605,-0.0015, 0.1302,-0.0855, 2.5479,-1.3984,-1.4945
09-Sep-2020 11:14:27.341, 0.1033, 0.9547, 0.2763,-0.0515, 0.1540,-0.0569, 2.5529,-1.3989,-1.4908
09-Sep-2020 11:14:27.351, 0.0768, 0.9659, 0.2830,-0.0904, 0.1809,-0.0464, 2.5584,-1.3988,-1.4867
09-Sep-2020 11:14:27.361, 0.0548, 0.9746, 0.2838,-0.1194, 0.2062,-0.0458, 2.5649,-1.3983,-1.4820
09-Sep-2020 11:14:27.371, 0.0414, 0.9851, 0.2812,-0.1307, 0.2156,-0.0530, 2.5724,-1.3974,-1.4764
09-Sep-2020 11:14:27.382, 0.0397, 0.9944, 0.2748,-0.1302, 0.1806,-0.0621, 2.5805,-1.3965,-1.4703
09-Sep-2020 11:14:27.391, 0.0449, 1.0018, 0.2692,-0.1317, 0.1122,-0.0732, 2.5887,-1.3956,-1.4638
09-Sep-2020 11:14:27.401, 0.0567, 1.0058, 0.2587,-0.1301, 0.0074,-0.0840, 2.5967,-1.3947,-1.4568
09-Sep-2020 11:14:27.411, 0.0750, 1.0040, 0.2443,-0.1278,-0.1037,-0.0895, 2.6041,-1.3938,-1.4493
09-Sep-2020 11:14:27.420, 0.1008, 0.9956, 0.2339,-0.1169,-0.2043,-0.0852, 2.6106,-1.3930,-1.4417
09-Sep-2020 11:14:27.431, 0.1230, 0.9827, 0.2280,-0.1093,-0.2703,-0.0774, 2.6161,-1.3920,-1.4340
09-Sep-2020 11:14:27.440, 0.1493, 0.9718, 0.2275,-0.1098,-0.2893,-0.0492, 2.6210,-1.3911,-1.4263
09-Sep-2020 11:14:27.450, 0.1774, 0.9657, 0.2304,-0.1178,-0.2750,-0.0131, 2.6250,-1.3900,-1.4194
09-Sep-2020 11:14:27.460, 0.2029, 0.9659, 0.2407,-0.1355,-0.2210, 0.0313, 2.6277,-1.3887,-1.4140
09-Sep-2020 11:14:27.470, 0.2203, 0.9683, 0.2504,-0.1652,-0.1422, 0.0693, 2.6284,-1.3873,-1.4111
09-Sep-2020 11:14:27.480, 0.2369, 0.9698, 0.2569,-0.2106,-0.0573, 0.1100, 2.6285,-1.3854,-1.4096
09-Sep-2020 11:14:27.490, 0.2401, 0.9758, 0.2523,-0.2442, 0.0392, 0.1382, 2.6285,-1.3829,-1.4090
09-Sep-2020 11:14:27.500, 0.2351, 0.9817, 0.2334,-0.2634, 0.1302, 0.1548, 2.6289,-1.3801,-1.4091
09-Sep-2020 11:14:27.510, 0.2262, 0.9859, 0.2128,-0.2511, 0.1999, 0.1578, 2.6297,-1.3770,-1.4096
09-Sep-2020 11:14:27.520, 0.2176, 0.9800, 0.1953,-0.2291, 0.2304, 0.1857, 2.6305,-1.3739,-1.4108
09-Sep-2020 11:14:27.530, 0.2013, 0.9613, 0.1822,-0.2109, 0.2116, 0.2291, 2.6297,-1.3709,-1.4138
09-Sep-2020 11:14:27.540, 0.1828, 0.9427, 0.1715,-0.1975, 0.1598, 0.2661, 2.6268,-1.3680,-1.4189
09-Sep-2020 11:14:27.550, 0.1642, 0.9314, 0.1644,-0.1980, 0.0877, 0.2885, 2.6216,-1.3650,-1.4258
09-Sep-2020 11:14:27.560, 0.1528, 0.9295, 0.1635,-0.1932, 0.0330, 0.3014, 2.6149,-1.3618,-1.4335
09-Sep-2020 11:14:27.570, 0.1506, 0.9391, 0.1645,-0.1848, 0.0032, 0.3019, 2.6074,-1.3587,-1.4416
09-Sep-2020 11:14:27.579, 0.1481, 0.9497, 0.1644,-0.1617,-0.0166, 0.2996, 2.5994,-1.3555,-1.4497
09-Sep-2020 11:14:27.589, 0.1414, 0.9524, 0.1649,-0.1153,-0.0298, 0.2810, 2.5912,-1.3526,-1.4580
09-Sep-2020 11:14:27.599, 0.1335, 0.9463, 0.1643,-0.0496,-0.0483, 0.2518, 2.5826,-1.3502,-1.4665
09-Sep-2020 11:14:27.609, 0.1193, 0.9335, 0.1653, 0.0172,-0.0393, 0.2100, 2.5736,-1.3484,-1.4753
09-Sep-2020 11:14:27.619, 0.0952, 0.9209, 0.1766, 0.0549, 0.0102, 0.1593, 2.5647,-1.3474,-1.4840
09-Sep-2020 11:14:27.629, 0.0689, 0.9066, 0.1987, 0.0229, 0.0833, 0.1015, 2.5574,-1.3469,-1.4915
09-Sep-2020 11:14:27.639, 0.0381, 0.8928, 0.2330,-0.0738, 0.1720, 0.0387, 2.5538,-1.3465,-1.4961
09-Sep-2020 11:14:27.649, 0.0100, 0.8911, 0.2656,-0.1928, 0.3049,-0.0211, 2.5556,-1.3456,-1.4961
09-Sep-2020 11:14:27.660, 0.0002, 0.8982, 0.2746,-0.2821, 0.5227,-0.0591, 2.5636,-1.3441,-1.4910
09-Sep-2020 11:14:27.670, 0.0144, 0.9157, 0.2482,-0.3324, 0.8245,-0.0796, 2.5771,-1.3421,-1.4825
09-Sep-2020 11:14:27.679, 0.0466, 0.9368, 0.1908,-0.3326, 1.1340,-0.0892, 2.5952,-1.3397,-1.4723
09-Sep-2020 11:14:27.689, 0.0884, 0.9488, 0.1334,-0.2931, 1.3725,-0.0803, 2.6164,-1.3373,-1.4621
09-Sep-2020 11:14:27.699, 0.1351, 0.9488, 0.0909,-0.2362, 1.4809,-0.0530, 2.6385,-1.3352,-1.4533
09-Sep-2020 11:14:27.709, 0.1736, 0.9420, 0.0647,-0.1597, 1.4428,-0.0107, 2.6592,-1.3333,-1.4471
09-Sep-2020 11:14:27.719, 0.1935, 0.9291, 0.0486,-0.0764, 1.2548, 0.0320, 2.6765,-1.3320,-1.4439
09-Sep-2020 11:14:27.729, 0.1935, 0.9198, 0.0411, 0.0146, 0.9520, 0.0529, 2.6888,-1.3312,-1.4440
09-Sep-2020 11:14:27.739, 0.1831, 0.9165, 0.0399, 0.1036, 0.5706, 0.0506, 2.6958,-1.3311,-1.4465
09-Sep-2020 11:14:27.749, 0.1676, 0.9149, 0.0457, 0.1770, 0.1701, 0.0509, 2.6975,-1.3318,-1.4506
09-Sep-2020 11:14:27.759, 0.1526, 0.9181, 0.0710, 0.2383,-0.1414, 0.0829, 2.6938,-1.3331,-1.4562
09-Sep-2020 11:14:27.769, 0.1342, 0.9273, 0.1121, 0.2622,-0.3306, 0.1089, 2.6849,-1.3349,-1.4640
09-Sep-2020 11:14:27.779, 0.1157, 0.9364, 0.1587, 0.2591,-0.3848, 0.1212, 2.6725,-1.3367,-1.4734
09-Sep-2020 11:14:27.789, 0.0986, 0.9414, 0.2168, 0.2263,-0.3286, 0.1205, 2.6590,-1.3385,-1.4835
09-Sep-2020 11:14:27.799, 0.0822, 0.9466, 0.2625, 0.1874,-0.1939, 0.1137, 2.6464,-1.3399,-1.4930
09-Sep-2020 11:14:27.809, 0.0641, 0.9498, 0.2893, 0.1607, 0.0022, 0.1123, 2.6361,-1.3410,-1.5017
09-Sep-2020 11:14:27.819, 0.0457, 0.9515, 0.2920, 0.1691, 0.2214, 0.1041, 2.6283,-1.3418,-1.5098
09-Sep-2020 11:14:27.829, 0.0313, 0.9543, 0.2723, 0.1999, 0.4204, 0.0831, 2.6227,-1.3428,-1.5178
09-Sep-2020 11:14:27.839, 0.0241, 0.9562, 0.2545, 0.2254, 0.5520, 0.0525, 2.6191,-1.3441,-1.5257
09-Sep-2020 11:14:27.848, 0.0321, 0.9546, 0.2424, 0.2257, 0.6086, 0.0285, 2.6173,-1.3458,-1.5331
09-Sep-2020 11:14:27.858, 0.0513, 0.9513, 0.2277, 0.2030, 0.5965, 0.0191, 2.6170,-1.3476,-1.5396
09-Sep-2020 11:14:27.868, 0.0729, 0.9487, 0.2119, 0.1728, 0.5545, 0.0224, 2.6173,-1.3492,-1.5453
09-Sep-2020 11:14:27.878, 0.0904, 0.9465, 0.1904, 0.1500, 0.5021, 0.0344, 2.6178,-1.3506,-1.5505
09-Sep-2020 11:14:27.888, 0.0973, 0.9488, 0.1660, 0.1589, 0.4608, 0.0511, 2.6177,-1.3517,-1.5557
09-Sep-2020 11:14:27.898, 0.0954, 0.9512, 0.1441, 0.1957, 0.4230, 0.0586, 2.6164,-1.3529,-1.5617
09-Sep-2020 11:14:27.908, 0.0910, 0.9498, 0.1275, 0.2412, 0.3704, 0.0593, 2.6136,-1.3543,-1.5689
09-Sep-2020 11:14:27.918, 0.0825, 0.9449, 0.1245, 0.2780, 0.3030, 0.0559, 2.6090,-1.3560,-1.5773
09-Sep-2020 11:14:27.928, 0.0710, 0.9367, 0.1302, 0.2933, 0.2379, 0.0433, 2.6030,-1.3581,-1.5866
09-Sep-2020 11:14:27.938, 0.0643, 0.9286, 0.1401, 0.2985, 0.1890, 0.0314, 2.5963,-1.3604,-1.5959
09-Sep-2020 11:14:27.948, 0.0607, 0.9309, 0.1530, 0.2923, 0.1819, 0.0194, 2.5893,-1.3627,-1.6049
09-Sep-2020 11:14:27.958, 0.0578, 0.9408, 0.1645, 0.2807, 0.2134, 0.0127, 2.5826,-1.3651,-1.6136
09-Sep-2020 11:14:27.968, 0.0533, 0.9520, 0.1698, 0.2674, 0.2744, 0.0048, 2.5767,-1.3674,-1.6219
09-Sep-2020 11:14:27.978, 0.0561, 0.9581, 0.1662, 0.2712, 0.3576,-0.0070, 2.5719,-1.3696,-1.6296
09-Sep-2020 11:14:27.988, 0.0599, 0.9581, 0.1563, 0.3045, 0.4420,-0.0148, 2.5680,-1.3719,-1.6371
09-Sep-2020 11:14:27.998, 0.0613, 0.9549, 0.1483, 0.3716, 0.5078,-0.0233, 2.5643,-1.3745,-1.6454
09-Sep-2020 11:14:28.007, 0.0640, 0.9486, 0.1498, 0.4528, 0.5253,-0.0406, 2.5597,-1.3777,-1.6553
09-Sep-2020 11:14:28.017, 0.0691, 0.9436, 0.1578, 0.5190, 0.5027,-0.0598, 2.5534,-1.3817,-1.6670
09-Sep-2020 11:14:28.027, 0.0782, 0.9395, 0.1613, 0.5673, 0.4651,-0.0683, 2.5452,-1.3863,-1.6803
09-Sep-2020 11:14:28.037, 0.0940, 0.9387, 0.1660, 0.5766, 0.4491,-0.0654, 2.5352,-1.3913,-1.6953
09-Sep-2020 11:14:28.047, 0.1083, 0.9409, 0.1738, 0.5358, 0.4396,-0.0563, 2.5239,-1.3963,-1.7113
09-Sep-2020 11:14:28.058, 0.1168, 0.9472, 0.1690, 0.4762, 0.4374,-0.0394, 2.5125,-1.4010,-1.7272
09-Sep-2020 11:14:28.067, 0.1196, 0.9523, 0.1701, 0.4378, 0.4914,-0.0035, 2.5016,-1.4050,-1.7427
09-Sep-2020 11:14:28.077, 0.1163, 0.9565, 0.1675, 0.4556, 0.5818, 0.0475, 2.4902,-1.4085,-1.7593
09-Sep-2020 11:14:28.087, 0.1022, 0.9545, 0.1569, 0.5119, 0.6668, 0.0941, 2.4759,-1.4118,-1.7796
09-Sep-2020 11:14:28.097, 0.0788, 0.9528, 0.1648, 0.5454, 0.7421, 0.1001, 2.4575,-1.4152,-1.8049
09-Sep-2020 11:14:28.107, 0.0527, 0.9527, 0.1774, 0.5077, 0.7562, 0.0705, 2.4372,-1.4187,-1.8329
09-Sep-2020 11:14:28.117, 0.0300, 0.9527, 0.1990, 0.4133, 0.7363, 0.0211, 2.4190,-1.4220,-1.8588
09-Sep-2020 11:14:28.127, 0.0166, 0.9558, 0.2296, 0.3255, 0.7713,-0.0187, 2.4063,-1.4249,-1.8791
09-Sep-2020 11:14:28.137, 0.0083, 0.9711, 0.2293, 0.2885, 0.8291,-0.0397, 2.3992,-1.4275,-1.8940
09-Sep-2020 11:14:28.147, 0.0207, 0.9946, 0.2014, 0.2798, 0.8673,-0.0333, 2.3952,-1.4298,-1.9064
09-Sep-2020 11:14:28.157, 0.0387, 1.0306, 0.1696, 0.2659, 0.8214,-0.0213, 2.3915,-1.4321,-1.9188
09-Sep-2020 11:14:28.167, 0.0553, 1.0884, 0.1443, 0.2360, 0.6528,-0.0200, 2.3872,-1.4341,-1.9313
09-Sep-2020 11:14:28.177, 0.0784, 1.1651, 0.1382, 0.2096, 0.3803,-0.0364, 2.3824,-1.4359,-1.9426
09-Sep-2020 11:14:28.187, 0.1001, 1.2402, 0.1482, 0.1909, 0.0721,-0.0605, 2.3768,-1.4377,-1.9520
09-Sep-2020 11:14:28.196, 0.1221, 1.2931, 0.1878, 0.1712,-0.1452,-0.0908, 2.3704,-1.4394,-1.9593
09-Sep-2020 11:14:28.206, 0.1337, 1.2975, 0.2466, 0.1508,-0.1662,-0.1130, 2.3643,-1.4413,-1.9641
09-Sep-2020 11:14:28.217, 0.1547, 1.2166, 0.2608, 0.1143,-0.1459,-0.1332, 2.3600,-1.4431,-1.9667
09-Sep-2020 11:14:28.226, 0.1702, 1.0770, 0.2438, 0.0579, 0.0262,-0.1340, 2.3591,-1.4448,-1.9663
09-Sep-2020 11:14:28.237, 0.1887, 0.9657, 0.2198, 0.0268, 0.2230,-0.0979, 2.3628,-1.4461,-1.9628
09-Sep-2020 11:14:28.246, 0.2046, 0.8821, 0.1627, 0.0252, 0.3898,-0.0416, 2.3685,-1.4470,-1.9593
09-Sep-2020 11:14:28.256, 0.2108, 0.8309, 0.1150, 0.0711, 0.5570, 0.0203, 2.3726,-1.4474,-1.9590
09-Sep-2020 11:14:28.266, 0.2062, 0.8178, 0.0705, 0.1429, 0.6587, 0.0566, 2.3724,-1.4478,-1.9648
09-Sep-2020 11:14:28.276, 0.1910, 0.8384, 0.0339, 0.2111, 0.6466, 0.0723, 2.3670,-1.4484,-1.9768
09-Sep-2020 11:14:28.286, 0.1705, 0.8786, 0.0180, 0.2478, 0.5407, 0.0728, 2.3567,-1.4494,-1.9935
09-Sep-2020 11:14:28.296, 0.1504, 0.9158, 0.0241, 0.2427, 0.3607, 0.0512, 2.3429,-1.4506,-2.0127
09-Sep-2020 11:14:28.306, 0.1337, 0.9499, 0.0316, 0.2098, 0.1308, 0.0386, 2.3284,-1.4519,-2.0309
09-Sep-2020 11:14:28.316, 0.1082, 0.9834, 0.0693, 0.1829,-0.0262, 0.0457, 2.3140,-1.4530,-2.0468
09-Sep-2020 11:14:28.326, 0.0788, 1.0237, 0.1142, 0.1648,-0.1234, 0.0614, 2.2991,-1.4538,-2.0615
09-Sep-2020 11:14:28.336, 0.0506, 1.0560, 0.1570, 0.1492,-0.2034, 0.0732, 2.2833,-1.4544,-2.0762
09-Sep-2020 11:14:28.346, 0.0294, 1.0723, 0.1831, 0.1042,-0.2879, 0.0891, 2.2670,-1.4548,-2.0905
09-Sep-2020 11:14:28.356, 0.0158, 1.0725, 0.1843, 0.0591,-0.3552, 0.0910, 2.2519,-1.4548,-2.1029
09-Sep-2020 11:14:28.366, 0.0122, 1.0571, 0.1650, 0.0253,-0.3840, 0.0982, 2.2389,-1.4544,-2.1124
09-Sep-2020 11:14:28.376, 0.0237, 1.0314, 0.1301, 0.0046,-0.4057, 0.1181, 2.2275,-1.4537,-2.1200
09-Sep-2020 11:14:28.386, 0.0360, 1.0031, 0.1003, 0.0044,-0.4226, 0.1299, 2.2165,-1.4528,-2.1270
09-Sep-2020 11:14:28.396, 0.0424, 0.9838, 0.0770, 0.0265,-0.4290, 0.1387, 2.2048,-1.4518,-2.1346
09-Sep-2020 11:14:28.406, 0.0490, 0.9743, 0.0650, 0.0430,-0.4350, 0.1423, 2.1914,-1.4508,-2.1438
09-Sep-2020 11:14:28.416, 0.0622, 0.9749, 0.0627, 0.0348,-0.4407, 0.1333, 2.1769,-1.4498,-2.1540
09-Sep-2020 11:14:28.426, 0.0793, 0.9855, 0.0689, 0.0289,-0.4429, 0.1295, 2.1633,-1.4489,-2.1633
09-Sep-2020 11:14:28.436, 0.0844, 1.0071, 0.0842, 0.0344,-0.4227, 0.1186, 2.1505,-1.4480,-2.1717
09-Sep-2020 11:14:28.445, 0.0905, 1.0151, 0.1087, 0.0342,-0.3959, 0.1143, 2.1384,-1.4471,-2.1798
09-Sep-2020 11:14:28.455, 0.0943, 1.0255, 0.1275, 0.0156,-0.3658, 0.1057, 2.1269,-1.4463,-2.1873
09-Sep-2020 11:14:28.465, 0.0972, 1.0305, 0.1323,-0.0017,-0.3622, 0.1038, 2.1172,-1.4455,-2.1934
09-Sep-2020 11:14:28.475, 0.1064, 1.0213, 0.1309,-0.0215,-0.3614, 0.0997, 2.1090,-1.4445,-2.1980
09-Sep-2020 11:14:28.485, 0.1153, 1.0096, 0.1201,-0.0274,-0.3629, 0.0947, 2.1022,-1.4435,-2.2012
09-Sep-2020 11:14:28.495, 0.1244, 0.9982, 0.1052,-0.0403,-0.3428, 0.0846, 2.0963,-1.4425,-2.2036
09-Sep-2020 11:14:28.505, 0.1353, 0.9838, 0.0989,-0.0501,-0.3051, 0.0755, 2.0917,-1.4416,-2.2047
09-Sep-2020 11:14:28.515, 0.1474, 0.9683, 0.0856,-0.0406,-0.2613, 0.0709, 2.0885,-1.4406,-2.2049
09-Sep-2020 11:14:28.525, 0.1615, 0.9590, 0.0689,-0.0047,-0.1930, 0.0691, 2.0853,-1.4398,-2.2055
09-Sep-2020 11:14:28.535, 0.1708, 0.9556, 0.0664, 0.0327,-0.1235, 0.0598, 2.0807,-1.4391,-2.2082
09-Sep-2020 11:14:28.545, 0.1788, 0.9553, 0.0691, 0.0561,-0.0526, 0.0511, 2.0747,-1.4387,-2.2130
09-Sep-2020 11:14:28.555, 0.1881, 0.9608, 0.0720, 0.0792, 0.0265, 0.0365, 2.0682,-1.4385,-2.2191
09-Sep-2020 11:14:28.565, 0.1948, 0.9677, 0.0722, 0.0985, 0.0967, 0.0232, 2.0615,-1.4385,-2.2261
09-Sep-2020 11:14:28.575, 0.1959, 0.9752, 0.0800, 0.1160, 0.1565, 0.0047, 2.0546,-1.4387,-2.2339
09-Sep-2020 11:14:28.585, 0.1937, 0.9814, 0.0893, 0.1244, 0.2068,-0.0170, 2.0478,-1.4391,-2.2423
09-Sep-2020 11:14:28.595, 0.1918, 0.9897, 0.0950, 0.1292, 0.2458,-0.0349, 2.0416,-1.4398,-2.2507
09-Sep-2020 11:14:28.605, 0.1857, 0.9948, 0.0998, 0.1305, 0.2782,-0.0458, 2.0360,-1.4406,-2.2587
09-Sep-2020 11:14:28.615, 0.1734, 0.9923, 0.1007, 0.1247, 0.2815,-0.0410, 2.0309,-1.4415,-2.2667
09-Sep-2020 11:14:28.624, 0.1642, 0.9794, 0.0855, 0.1179, 0.2514,-0.0325, 2.0256,-1.4423,-2.2748
09-Sep-2020 11:14:28.634, 0.1547, 0.9676, 0.0663, 0.1166, 0.1999,-0.0271, 2.0201,-1.4429,-2.2829
09-Sep-2020 11:14:28.645, 0.1527, 0.9601, 0.0507, 0.1253, 0.1552,-0.0227, 2.0139,-1.4435,-2.2911
09-Sep-2020 11:14:28.655, 0.1559, 0.9550, 0.0340, 0.1535, 0.1417,-0.0137, 2.0064,-1.4440,-2.3002
09-Sep-2020 11:14:28.665, 0.1511, 0.9490, 0.0211, 0.1817, 0.1527,-0.0155, 1.9966,-1.4446,-2.3115
09-Sep-2020 11:14:28.675, 0.1477, 0.9531, 0.0242, 0.1983, 0.1867,-0.0231, 1.9851,-1.4452,-2.3246
09-Sep-2020 11:14:28.684, 0.1439, 0.9617, 0.0317, 0.2087, 0.2438,-0.0236, 1.9728,-1.4460,-2.3389
09-Sep-2020 11:14:28.694, 0.1387, 0.9790, 0.0413, 0.2133, 0.3100,-0.0168, 1.9603,-1.4468,-2.3539
09-Sep-2020 11:14:28.704, 0.1228, 0.9958, 0.0509, 0.2107, 0.3466,-0.0140, 1.9479,-1.4476,-2.3695
09-Sep-2020 11:14:28.714, 0.1055, 1.0091, 0.0514, 0.1992, 0.3471,-0.0113, 1.9358,-1.4483,-2.3852
09-Sep-2020 11:14:28.725, 0.0821, 1.0262, 0.0607, 0.1826, 0.3194,-0.0175, 1.9240,-1.4491,-2.4005
09-Sep-2020 11:14:28.734, 0.0648, 1.0371, 0.0691, 0.1533, 0.2666,-0.0242, 1.9132,-1.4498,-2.4146
09-Sep-2020 11:14:28.744, 0.0489, 1.0506, 0.0820, 0.1177, 0.2043,-0.0290, 1.9042,-1.4505,-2.4263
09-Sep-2020 11:14:28.754, 0.0304, 1.0656, 0.0857, 0.0825, 0.1063,-0.0323, 1.8973,-1.4511,-2.4352
09-Sep-2020 11:14:28.764, 0.0242, 1.0681, 0.0900, 0.0412,-0.0164,-0.0259, 1.8922,-1.4516,-2.4414
09-Sep-2020 11:14:28.774, 0.0241, 1.0574, 0.1049,-0.0012,-0.1172,-0.0091, 1.8890,-1.4519,-2.4445
09-Sep-2020 11:14:28.784, 0.0495, 1.0355, 0.1102,-0.0331,-0.2077, 0.0061, 1.8876,-1.4519,-2.4447
09-Sep-2020 11:14:28.794, 0.0920, 1.0148, 0.0970,-0.0520,-0.2717, 0.0066, 1.8874,-1.4517,-2.4428
09-Sep-2020 11:14:28.804, 0.1235, 0.9976, 0.0823,-0.0616,-0.2864, 0.0215, 1.8882,-1.4514,-2.4393
09-Sep-2020 11:14:28.814, 0.1360, 0.9896, 0.0648,-0.0679,-0.2616, 0.0364, 1.8894,-1.4510,-2.4352
09-Sep-2020 11:14:28.824, 0.1333, 0.9837, 0.0473,-0.0602,-0.2110, 0.0416, 1.8906,-1.4504,-2.4314
09-Sep-2020 11:14:28.834, 0.1258, 0.9754, 0.0352,-0.0336,-0.1434, 0.0368, 1.8916,-1.4498,-2.4283
09-Sep-2020 11:14:28.844, 0.1210, 0.9725, 0.0234, 0.0045,-0.0828, 0.0309, 1.8913,-1.4493,-2.4271
09-Sep-2020 11:14:28.856, 0.1168, 0.9735, 0.0246, 0.0350,-0.0328, 0.0249, 1.8897,-1.4490,-2.4279
09-Sep-2020 11:14:28.863, 0.1116, 0.9794, 0.0365, 0.0460, 0.0078, 0.0201, 1.8867,-1.4489,-2.4306
09-Sep-2020 11:14:28.873, 0.1075, 0.9853, 0.0455, 0.0352, 0.0256, 0.0121, 1.8834,-1.4489,-2.4340
09-Sep-2020 11:14:28.883, 0.1045, 0.9882, 0.0479, 0.0203, 0.0281, 0.0094, 1.8810,-1.4489,-2.4366
09-Sep-2020 11:14:28.893, 0.0984, 0.9881, 0.0469, 0.0081, 0.0091, 0.0029, 1.8796,-1.4488,-2.4383
09-Sep-2020 11:14:28.903, 0.0929, 0.9844, 0.0427, 0.0089,-0.0313,-0.0048, 1.8787,-1.4487,-2.4393
09-Sep-2020 11:14:28.913, 0.0895, 0.9880, 0.0416,-0.0002,-0.0762,-0.0212, 1.8774,-1.4486,-2.4402
09-Sep-2020 11:14:28.923, 0.0898, 0.9940, 0.0430,-0.0023,-0.1146,-0.0314, 1.8765,-1.4488,-2.4404
09-Sep-2020 11:14:28.933, 0.0974, 0.9992, 0.0472,-0.0019,-0.1374,-0.0412, 1.8755,-1.4490,-2.4403
09-Sep-2020 11:14:28.943, 0.1088, 0.9989, 0.0499, 0.0001,-0.1382,-0.0473, 1.8746,-1.4493,-2.4398
09-Sep-2020 11:14:28.953, 0.1215, 0.9928, 0.0452,-0.0004,-0.1379,-0.0471, 1.8738,-1.4497,-2.4392
09-Sep-2020 11:14:28.963, 0.1355, 0.9829, 0.0409,-0.0015,-0.1181,-0.0450, 1.8732,-1.4501,-2.4384
09-Sep-2020 11:14:28.973, 0.1440, 0.9752, 0.0452, 0.0061,-0.0721,-0.0443, 1.8728,-1.4505,-2.4376
09-Sep-2020 11:14:28.983, 0.1510, 0.9725, 0.0543, 0.0095,-0.0204,-0.0392, 1.8725,-1.4509,-2.4373
09-Sep-2020 11:14:28.993, 0.1546, 0.9746, 0.0611, 0.0131, 0.0167,-0.0312, 1.8721,-1.4513,-2.4374
09-Sep-2020 11:14:29.003, 0.1584, 0.9798, 0.0645, 0.0172, 0.0389,-0.0220, 1.8717,-1.4516,-2.4380
09-Sep-2020 11:14:29.013, 0.1591, 0.9900, 0.0661, 0.0192, 0.0511,-0.0139, 1.8710,-1.4518,-2.4391
09-Sep-2020 11:14:29.023, 0.1560, 0.9965, 0.0698, 0.0124, 0.0373,-0.0077, 1.8701,-1.4520,-2.4405
09-Sep-2020 11:14:29.033, 0.1492, 0.9937, 0.0745,-0.0089, 0.0060, 0.0059, 1.8694,-1.4520,-2.4415
09-Sep-2020 11:14:29.042, 0.1395, 0.9917, 0.0783,-0.0293,-0.0417, 0.0136, 1.8696,-1.4519,-2.4414
09-Sep-2020 11:14:29.053, 0.1325, 0.9942, 0.0764,-0.0408,-0.0836, 0.0238, 1.8707,-1.4516,-2.4398
09-Sep-2020 11:14:29.063, 0.1298, 0.9957, 0.0723,-0.0310,-0.1213, 0.0254, 1.8720,-1.4511,-2.4377
09-Sep-2020 11:14:29.073, 0.1306, 0.9945, 0.0692,-0.0174,-0.1415, 0.0282, 1.8722,-1.4506,-2.4363
09-Sep-2020 11:14:29.083, 0.1336, 0.9947, 0.0733,-0.0085,-0.1386, 0.0268, 1.8712,-1.4502,-2.4359
09-Sep-2020 11:14:29.093, 0.1366, 0.9927, 0.0742,-0.0069,-0.1168, 0.0239, 1.8696,-1.4497,-2.4361
09-Sep-2020 11:14:29.102, 0.1412, 0.9892, 0.0758,-0.0116,-0.0744, 0.0123, 1.8683,-1.4494,-2.4362
09-Sep-2020 11:14:29.112, 0.1467, 0.9879, 0.0760,-0.0129,-0.0198, 0.0054, 1.8680,-1.4491,-2.4358
09-Sep-2020 11:14:29.122, 0.1536, 0.9869, 0.0735,-0.0107, 0.0381,-0.0004, 1.8685,-1.4488,-2.4350
09-Sep-2020 11:14:29.132, 0.1572, 0.9851, 0.0717,-0.0054, 0.0881,-0.0072, 1.8697,-1.4487,-2.4342
09-Sep-2020 11:14:29.142, 0.1604, 0.9822, 0.0746,-0.0022, 0.1365,-0.0108, 1.8711,-1.4486,-2.4337
09-Sep-2020 11:14:29.153, 0.1626, 0.9808, 0.0724, 0.0018, 0.1667,-0.0165, 1.8728,-1.4486,-2.4333
09-Sep-2020 11:14:29.162, 0.1681, 0.9814, 0.0676, 0.0043, 0.1708,-0.0127, 1.8745,-1.4487,-2.4333
09-Sep-2020 11:14:29.172, 0.1679, 0.9808, 0.0674,-0.0062, 0.1715,-0.0067, 1.8762,-1.4487,-2.4333
09-Sep-2020 11:14:29.183, 0.1683, 0.9796, 0.0627,-0.0069, 0.1629, 0.0029, 1.8783,-1.4486,-2.4328
09-Sep-2020 11:14:29.192, 0.1705, 0.9679, 0.0505,-0.0052, 0.1491, 0.0173, 1.8803,-1.4485,-2.4325
09-Sep-2020 11:14:29.202, 0.1694, 0.9679, 0.0385, 0.0255, 0.1634, 0.0136, 1.8816,-1.4482,-2.4327
09-Sep-2020 11:14:29.212, 0.1623, 0.9923, 0.0253, 0.0751, 0.1673, 0.0234, 1.8806,-1.4480,-2.4353
09-Sep-2020 11:14:29.222, 0.1512, 0.9907, 0.0344, 0.0849, 0.1928, 0.0333, 1.8759,-1.4478,-2.4417
09-Sep-2020 11:14:29.232, 0.1414, 0.9862, 0.0424, 0.0918, 0.2156, 0.0390, 1.8703,-1.4476,-2.4493
09-Sep-2020 11:14:29.242, 0.1311, 0.9769, 0.0425, 0.1025, 0.2353, 0.0332, 1.8643,-1.4474,-2.4575
09-Sep-2020 11:14:29.253, 0.1260, 0.9733, 0.0585, 0.1150, 0.2775, 0.0213, 1.8578,-1.4472,-2.4664
09-Sep-2020 11:14:29.262, 0.1261, 0.9718, 0.0736, 0.1285, 0.3123, 0.0035, 1.8510,-1.4472,-2.4761
09-Sep-2020 11:14:29.271, 0.1300, 0.9747, 0.0806, 0.1177, 0.3286,-0.0072, 1.8439,-1.4473,-2.4863
09-Sep-2020 11:14:29.281, 0.1403, 0.9947, 0.0834, 0.0850, 0.3378,-0.0277, 1.8379,-1.4475,-2.4956
09-Sep-2020 11:14:29.291, 0.1555, 1.0096, 0.0741, 0.0465, 0.3383,-0.0372, 1.8347,-1.4478,-2.5022
09-Sep-2020 11:14:29.301, 0.1722, 1.0102, 0.0553, 0.0432, 0.3547,-0.0346, 1.8342,-1.4482,-2.5061
09-Sep-2020 11:14:29.311, 0.1843, 1.0054, 0.0265, 0.0706, 0.3786,-0.0161, 1.8342,-1.4485,-2.5097
09-Sep-2020 11:14:29.321, 0.1822, 0.9978, 0.0070, 0.0893, 0.3867, 0.0019, 1.8324,-1.4487,-2.5153
09-Sep-2020 11:14:29.331, 0.1698, 0.9882,-0.0024, 0.1078, 0.3771, 0.0187, 1.8288,-1.4489,-2.5228
09-Sep-2020 11:14:29.341, 0.1484, 0.9807,-0.0060, 0.1312, 0.3654, 0.0375, 1.8232,-1.4489,-2.5322
09-Sep-2020 11:14:29.351, 0.1167, 0.9834, 0.0059, 0.1420, 0.3318, 0.0409, 1.8154,-1.4488,-2.5437
09-Sep-2020 11:14:29.361, 0.0840, 0.9893, 0.0244, 0.1347, 0.2918, 0.0360, 1.8064,-1.4487,-2.5560
09-Sep-2020 11:14:29.371, 0.0606, 0.9937, 0.0465, 0.1096, 0.2416, 0.0257, 1.7978,-1.4486,-2.5677
09-Sep-2020 11:14:29.381, 0.0441, 0.9976, 0.0654, 0.0764, 0.1867, 0.0167, 1.7907,-1.4485,-2.5772
09-Sep-2020 11:14:29.391, 0.0333, 1.0028, 0.0734, 0.0309, 0.1146, 0.0058, 1.7859,-1.4485,-2.5839
09-Sep-2020 11:14:29.401, 0.0295, 1.0086, 0.0778,-0.0277, 0.0404, 0.0047, 1.7842,-1.4484,-2.5868
09-Sep-2020 11:14:29.411, 0.0305, 1.0082, 0.0692,-0.0809,-0.0404, 0.0092, 1.7862,-1.4482,-2.5852
09-Sep-2020 11:14:29.421, 0.0319, 1.0007, 0.0463,-0.1125,-0.1232, 0.0183, 1.7915,-1.4479,-2.5795
09-Sep-2020 11:14:29.430, 0.0345, 0.9962, 0.0256,-0.1265,-0.1909, 0.0206, 1.7983,-1.4474,-2.5714
09-Sep-2020 11:14:29.440, 0.0387, 0.9939, 0.0148,-0.1257,-0.2335, 0.0098, 1.8054,-1.4469,-2.5623
09-Sep-2020 11:14:29.450, 0.0472, 0.9877, 0.0104,-0.1068,-0.2467,-0.0050, 1.8122,-1.4465,-2.5531
09-Sep-2020 11:14:29.460, 0.0588, 0.9797, 0.0087,-0.0845,-0.2418,-0.0261, 1.8177,-1.4462,-2.5451
09-Sep-2020 11:14:29.470, 0.0753, 0.9742, 0.0110,-0.0601,-0.2254,-0.0373, 1.8219,-1.4462,-2.5384
09-Sep-2020 11:14:29.480, 0.0939, 0.9683, 0.0142,-0.0422,-0.2033,-0.0505, 1.8255,-1.4465,-2.5325
09-Sep-2020 11:14:29.491, 0.1099, 0.9617, 0.0186,-0.0235,-0.1720,-0.0589, 1.8283,-1.4470,-2.5277
09-Sep-2020 11:14:29.501, 0.1223, 0.9563, 0.0235,-0.0027,-0.1463,-0.0577, 1.8300,-1.4475,-2.5243
09-Sep-2020 11:14:29.511, 0.1299, 0.9558, 0.0267, 0.0246,-0.1152,-0.0605, 1.8300,-1.4482,-2.5227
09-Sep-2020 11:14:29.521, 0.1327, 0.9631, 0.0302, 0.0489,-0.0834,-0.0710, 1.8280,-1.4489,-2.5236
09-Sep-2020 11:14:29.530, 0.1337, 0.9775, 0.0378, 0.0590,-0.0596,-0.0788, 1.8245,-1.4498,-2.5264
09-Sep-2020 11:14:29.540, 0.1346, 0.9959, 0.0398, 0.0744,-0.0491,-0.0600, 1.8201,-1.4507,-2.5301
09-Sep-2020 11:14:29.550, 0.1309, 1.0123, 0.0554, 0.0717,-0.0195,-0.0315, 1.8143,-1.4515,-2.5354
09-Sep-2020 11:14:29.560, 0.0884, 1.0134, 0.0731, 0.0830, 0.1234,-0.0394, 1.8085,-1.4521,-2.5412
09-Sep-2020 11:14:29.570, 0.0595, 1.0123, 0.0550, 0.0623, 0.1809,-0.0376, 1.8032,-1.4526,-2.5478
09-Sep-2020 11:14:29.580, 0.0388, 1.0006, 0.0620,-0.0026, 0.1888,-0.0623, 1.8002,-1.4531,-2.5525
09-Sep-2020 11:14:29.590, 0.0638, 0.9749, 0.0332,-0.0187, 0.1019,-0.0960, 1.8025,-1.4536,-2.5520
09-Sep-2020 11:14:29.600, 0.1125, 0.9477, 0.0285, 0.0364,-0.0538,-0.1631, 1.8060,-1.4544,-2.5495
09-Sep-2020 11:14:29.610, 0.1651, 0.9571, 0.0372, 0.0961,-0.1802,-0.1899, 1.8051,-1.4560,-2.5498
09-Sep-2020 11:14:29.620, 0.2035, 1.0014, 0.0942, 0.1245,-0.1315,-0.1670, 1.7987,-1.4579,-2.5546
09-Sep-2020 11:14:29.629, 0.2167, 1.0335, 0.1438, 0.1017,-0.0327,-0.1006, 1.7896,-1.4596,-2.5624
09-Sep-2020 11:14:29.640, 0.1907, 1.0273, 0.1445, 0.0228, 0.0238,-0.0514, 1.7824,-1.4607,-2.5693
09-Sep-2020 11:14:29.650, 0.1316, 1.0115, 0.1279,-0.0520,-0.0235,-0.0424, 1.7818,-1.4612,-2.5701
09-Sep-2020 11:14:29.659, 0.0957, 1.0106, 0.0868,-0.0883,-0.1542,-0.0430, 1.7867,-1.4615,-2.5648
09-Sep-2020 11:14:29.670, 0.0763, 1.0185, 0.0634,-0.1070,-0.2752,-0.0574, 1.7940,-1.4618,-2.5559
09-Sep-2020 11:14:29.679, 0.0636, 1.0252, 0.0552,-0.1275,-0.3452,-0.0744, 1.8019,-1.4622,-2.5453
09-Sep-2020 11:14:29.689, 0.0759, 1.0179, 0.0453,-0.1223,-0.3794,-0.0713, 1.8108,-1.4625,-2.5329
09-Sep-2020 11:14:29.699, 0.0987, 1.0025, 0.0356,-0.0999,-0.3793,-0.0604, 1.8189,-1.4628,-2.5210
09-Sep-2020 11:14:29.709, 0.1239, 0.9895, 0.0376,-0.0749,-0.3572,-0.0543, 1.8252,-1.4629,-2.5108
09-Sep-2020 11:14:29.719, 0.1414, 0.9783, 0.0453,-0.0571,-0.3236,-0.0437, 1.8332,-1.4624,-2.4993
09-Sep-2020 11:14:29.729, 0.1438, 0.9713, 0.0538,-0.0547,-0.2950,-0.0302, 1.8400,-1.4619,-2.4892
09-Sep-2020 11:14:29.739, 0.1419, 0.9713, 0.0606,-0.0573,-0.2783,-0.0167, 1.8435,-1.4619,-2.4827
09-Sep-2020 11:14:29.750, 0.1358, 0.9758, 0.0644,-0.0626,-0.2735,-0.0025, 1.8466,-1.4618,-2.4768
09-Sep-2020 11:14:29.759, 0.1271, 0.9784, 0.0688,-0.0835,-0.2799, 0.0099, 1.8496,-1.4616,-2.4710
09-Sep-2020 11:14:29.769, 0.1185, 0.9804, 0.0696,-0.0999,-0.3014, 0.0165, 1.8533,-1.4612,-2.4645
09-Sep-2020 11:14:29.779, 0.1079, 0.9809, 0.0617,-0.1049,-0.3222, 0.0225, 1.8581,-1.4607,-2.4567
09-Sep-2020 11:14:29.789, 0.0966, 0.9791, 0.0504,-0.0861,-0.3204, 0.0251, 1.8627,-1.4602,-2.4488
09-Sep-2020 11:14:29.799, 0.0864, 0.9760, 0.0406,-0.0660,-0.3029, 0.0220, 1.8658,-1.4596,-2.4425
09-Sep-2020 11:14:29.809, 0.0791, 0.9740, 0.0350,-0.0491,-0.2602, 0.0117, 1.8673,-1.4592,-2.4380
09-Sep-2020 11:14:29.819, 0.0747, 0.9745, 0.0295,-0.0350,-0.2066, 0.0071, 1.8680,-1.4588,-2.4346
09-Sep-2020 11:14:29.829, 0.0820, 0.9738, 0.0280, 0.0036, 0.0088, 0.0007, 1.8683,-1.4586,-2.4324
09-Sep-2020 11:14:29.839, 0.0977, 0.9723, 0.0007, 0.0748, 0.3851,-0.0148, 1.8675,-1.4586,-2.4334
09-Sep-2020 11:14:29.850, 0.1097, 0.9678,-0.0332, 0.1732, 0.5032,-0.0257, 1.8644,-1.4589,-2.4402
09-Sep-2020 11:14:29.858, 0.1077, 0.9760, 0.0203, 0.1949, 0.5343,-0.0147, 1.8552,-1.4596,-2.4544
09-Sep-2020 11:14:29.869, 0.0974, 0.9915, 0.0742, 0.1553, 0.5268,-0.0149, 1.8441,-1.4602,-2.4709
09-Sep-2020 11:14:29.879, 0.0837, 0.9982, 0.0622, 0.1172, 0.2531,-0.0529, 1.8355,-1.4607,-2.4846
09-Sep-2020 11:14:29.888, 0.0643, 0.9905, 0.0908, 0.0467,-0.0677,-0.1103, 1.8288,-1.4614,-2.4939
09-Sep-2020 11:14:29.898, 0.0914, 0.9948, 0.1109,-0.0383,-0.4276,-0.0727, 1.8259,-1.4624,-2.4960
09-Sep-2020 11:14:29.908, 0.1139, 0.9949, 0.1302,-0.0726,-0.3894,-0.0602, 1.8265,-1.4630,-2.4915
09-Sep-2020 11:14:29.918, 0.1099, 1.0058, 0.0832,-0.0211,-0.2034,-0.0464, 1.8295,-1.4634,-2.4846
09-Sep-2020 11:14:29.928, 0.1268, 1.0091, 0.0237, 0.0355,-0.0938,-0.0070, 1.8301,-1.4637,-2.4820
09-Sep-2020 11:14:29.938, 0.1297, 1.0045,-0.0006, 0.0424,-0.1810,-0.0014, 1.8259,-1.4638,-2.4851
09-Sep-2020 11:14:29.948, 0.1105, 0.9993, 0.0430, 0.0118,-0.2774,-0.0210, 1.8200,-1.4639,-2.4891
09-Sep-2020 11:14:29.958, 0.0939, 0.9950, 0.0770,-0.0277,-0.4159,-0.0534, 1.8163,-1.4641,-2.4901
09-Sep-2020 11:14:29.968, 0.1205, 0.9947, 0.0905,-0.0583,-0.5639,-0.0112, 1.8151,-1.4644,-2.4871
09-Sep-2020 11:14:29.978, 0.1282, 0.9951, 0.1271,-0.0719,-0.5254,-0.0146, 1.8148,-1.4643,-2.4819
09-Sep-2020 11:14:29.988, 0.1247, 0.9938, 0.1127,-0.0699,-0.4291,-0.0100, 1.8158,-1.4642,-2.4756
09-Sep-2020 11:14:29.998, 0.1374, 0.9887, 0.0887,-0.0781,-0.3329, 0.0061, 1.8176,-1.4641,-2.4696
09-Sep-2020 11:14:30.008, 0.1373, 0.9862, 0.0624,-0.0793,-0.3016, 0.0004, 1.8205,-1.4638,-2.4632
09-Sep-2020 11:14:30.018, 0.1339, 0.9854, 0.0559,-0.0765,-0.2622,-0.0039, 1.8241,-1.4635,-2.4566
09-Sep-2020 11:14:30.028, 0.1338, 0.9845, 0.0511,-0.0466,-0.1873,-0.0150, 1.8277,-1.4633,-2.4503
09-Sep-2020 11:14:30.038, 0.1346, 0.9866, 0.0388,-0.0062,-0.0983,-0.0196, 1.8299,-1.4633,-2.4463
09-Sep-2020 11:14:30.048, 0.1310, 0.9872, 0.0378, 0.0294,-0.0281,-0.0191, 1.8294,-1.4634,-2.4458
09-Sep-2020 11:14:30.058, 0.1284, 0.9896, 0.0460, 0.0403, 0.0054,-0.0192, 1.8266,-1.4636,-2.4482
09-Sep-2020 11:14:30.068, 0.1305, 0.9959, 0.0520, 0.0461, 0.0123,-0.0185, 1.8231,-1.4638,-2.4518
09-Sep-2020 11:14:30.078, 0.1349, 0.9988, 0.0557, 0.0406,-0.0064,-0.0062, 1.8192,-1.4640,-2.4558
09-Sep-2020 11:14:30.088, 0.1394, 1.0009, 0.0589, 0.0446,-0.0295, 0.0052, 1.8160,-1.4640,-2.4590
09-Sep-2020 11:14:30.098, 0.1447, 1.0046, 0.0673, 0.0535,-0.0437, 0.0190, 1.8115,-1.4640,-2.4632
09-Sep-2020 11:14:30.108, 0.1513, 1.0021, 0.0767, 0.0678,-0.0581, 0.0301, 1.8056,-1.4638,-2.4687
09-Sep-2020 11:14:30.118, 0.1568, 0.9920, 0.0847, 0.0725,-0.0733, 0.0388, 1.7981,-1.4635,-2.4756
09-Sep-2020 11:14:30.127, 0.1621, 0.9867, 0.0925, 0.0733,-0.0888, 0.0533, 1.7896,-1.4632,-2.4834
09-Sep-2020 11:14:30.138, 0.1670, 0.9897, 0.1044, 0.0901,-0.1086, 0.0722, 1.7805,-1.4627,-2.4917
09-Sep-2020 11:14:30.147, 0.1668, 1.0063, 0.1154, 0.1226,-0.1431, 0.0958, 1.7697,-1.4621,-2.5015
09-Sep-2020 11:14:30.157, 0.1608, 1.0234, 0.1345, 0.1311,-0.1870, 0.1168, 1.7557,-1.4613,-2.5141
09-Sep-2020 11:14:30.167, 0.1471, 1.0273, 0.1627, 0.0871,-0.2487, 0.1268, 1.7407,-1.4602,-2.5274
09-Sep-2020 11:14:30.177, 0.1368, 1.0216, 0.1887,-0.0014,-0.3472, 0.1230, 1.7290,-1.4590,-2.5366
09-Sep-2020 11:14:30.187, 0.1286, 1.0115, 0.2056,-0.1108,-0.4527, 0.1101, 1.7242,-1.4577,-2.5380
09-Sep-2020 11:14:30.197, 0.1179, 1.0028, 0.1930,-0.2057,-0.5431, 0.0745, 1.7278,-1.4563,-2.5298
09-Sep-2020 11:14:30.207, 0.1051, 0.9985, 0.1381,-0.2447,-0.5853, 0.0352, 1.7388,-1.4551,-2.5133
09-Sep-2020 11:14:30.217, 0.0953, 0.9827, 0.0697,-0.2241,-0.5827, 0.0077, 1.7531,-1.4542,-2.4931
09-Sep-2020 11:14:30.227, 0.0932, 0.9572, 0.0111,-0.1584,-0.5410,-0.0005, 1.7660,-1.4536,-2.4743
09-Sep-2020 11:14:30.237, 0.1000, 0.9242,-0.0282,-0.0622,-0.4798, 0.0023, 1.7731,-1.4532,-2.4617
09-Sep-2020 11:14:30.247, 0.1151, 0.9002,-0.0309, 0.0550,-0.3314, 0.0120, 1.7729,-1.4530,-2.4572
09-Sep-2020 11:14:30.257, 0.1396, 0.8938,-0.0300, 0.1819,-0.1506, 0.0252, 1.7643,-1.4529,-2.4625
09-Sep-2020 11:14:30.267, 0.1676, 0.8979,-0.0257, 0.2911, 0.0562, 0.0485, 1.7470,-1.4529,-2.4784
09-Sep-2020 11:14:30.276, 0.1890, 0.9044,-0.0119, 0.3664, 0.2831, 0.0684, 1.7226,-1.4529,-2.5036
09-Sep-2020 11:14:30.287, 0.1989, 0.9073, 0.0039, 0.4184, 0.4910, 0.0738, 1.6940,-1.4526,-2.5352
09-Sep-2020 11:14:30.297, 0.2067, 0.9139, 0.0036, 0.4698, 0.6143, 0.0629, 1.6631,-1.4523,-2.5712
09-Sep-2020 11:14:30.306, 0.2129, 0.9211,-0.0021, 0.5279, 0.6342, 0.0494, 1.6292,-1.4519,-2.6114
09-Sep-2020 11:14:30.316, 0.2107, 0.9310, 0.0046, 0.5517, 0.5388, 0.0496, 1.5912,-1.4516,-2.6559
09-Sep-2020 11:14:30.326, 0.1876, 0.9393, 0.0405, 0.5069, 0.3889, 0.0841, 1.5508,-1.4510,-2.7020
09-Sep-2020 11:14:30.336, 0.1353, 0.9512, 0.0999, 0.3943, 0.2080, 0.1286, 1.5133,-1.4499,-2.7437
09-Sep-2020 11:14:30.346, 0.0766, 0.9767, 0.1368, 0.2707,-0.0225, 0.1483, 1.4838,-1.4483,-2.7754
09-Sep-2020 11:14:30.356, 0.0362, 1.0000, 0.1556, 0.1689,-0.2567, 0.1686, 1.4628,-1.4465,-2.7963
09-Sep-2020 11:14:30.366, 0.0195, 1.0174, 0.1646, 0.0905,-0.4598, 0.1957, 1.4482,-1.4445,-2.8085
09-Sep-2020 11:14:30.376, 0.0128, 1.0296, 0.1451, 0.0065,-0.6492, 0.2262, 1.4385,-1.4424,-2.8136
09-Sep-2020 11:14:30.386, 0.0132, 1.0329, 0.1076,-0.0831,-0.7958, 0.2347, 1.4338,-1.4401,-2.8119
09-Sep-2020 11:14:30.396, 0.0280, 1.0229, 0.0671,-0.1332,-0.8845, 0.2212, 1.4340,-1.4378,-2.8037
09-Sep-2020 11:14:30.406, 0.0471, 1.0162, 0.0302,-0.1375,-0.9052, 0.1944, 1.4367,-1.4357,-2.7921
09-Sep-2020 11:14:30.416, 0.0672, 1.0100, 0.0098,-0.1145,-0.8578, 0.1389, 1.4391,-1.4339,-2.7806
09-Sep-2020 11:14:30.426, 0.0891, 0.9973,-0.0017,-0.0891,-0.7641, 0.0842, 1.4399,-1.4326,-2.7712
09-Sep-2020 11:14:30.436, 0.1100, 0.9748,-0.0114,-0.0683,-0.6610, 0.0276, 1.4393,-1.4319,-2.7641
09-Sep-2020 11:14:30.446, 0.1315, 0.9419,-0.0170,-0.0658,-0.5730,-0.0069, 1.4378,-1.4316,-2.7590
09-Sep-2020 11:14:30.456, 0.1487, 0.9109,-0.0171,-0.0885,-0.4772,-0.0230, 1.4367,-1.4317,-2.7543
09-Sep-2020 11:14:30.466, 0.1586, 0.8877,-0.0192,-0.1144,-0.4004,-0.0248, 1.4378,-1.4319,-2.7484
09-Sep-2020 11:14:30.476, 0.1585, 0.8814,-0.0297,-0.1370,-0.3504,-0.0145, 1.4415,-1.4322,-2.7406
09-Sep-2020 11:14:30.485, 0.1597, 0.9173,-0.0347,-0.1568,-0.2523, 0.0017, 1.4474,-1.4324,-2.7311
09-Sep-2020 11:14:30.496, 0.1751, 0.9892,-0.0511,-0.2128,-0.0828, 0.0029, 1.4562,-1.4325,-2.7198
09-Sep-2020 11:14:30.505, 0.1995, 1.0580,-0.0520,-0.2996, 0.1440,-0.0076, 1.4705,-1.4327,-2.7045
09-Sep-2020 11:14:30.515, 0.2205, 1.1089,-0.0705,-0.3776, 0.3823,-0.0320, 1.4931,-1.4329,-2.6832
09-Sep-2020 11:14:30.526, 0.2416, 1.1376,-0.0841,-0.4163, 0.6174,-0.0624, 1.5233,-1.4334,-2.6565
09-Sep-2020 11:14:30.535, 0.2524, 1.1231,-0.0998,-0.3885, 0.8078,-0.1048, 1.5587,-1.4341,-2.6269
09-Sep-2020 11:14:30.545, 0.2435, 1.0647,-0.1189,-0.2760, 0.9244,-0.1753, 1.5943,-1.4351,-2.5991
09-Sep-2020 11:14:30.555, 0.2348, 0.9951,-0.1464,-0.0943, 0.8980,-0.2400, 1.6236,-1.4366,-2.5787
09-Sep-2020 11:14:30.565, 0.2442, 0.9478,-0.1643, 0.1432, 0.7777,-0.2536, 1.6399,-1.4389,-2.5712
09-Sep-2020 11:14:30.576, 0.2372, 0.9438,-0.1628, 0.3809, 0.6297,-0.2461, 1.6378,-1.4414,-2.5811
09-Sep-2020 11:14:30.585, 0.1713, 0.9622,-0.1647, 0.5503, 0.5128,-0.2749, 1.6158,-1.4440,-2.6096
09-Sep-2020 11:14:30.595, 0.1731, 0.9537,-0.1700, 0.5810, 0.1643,-0.2795, 1.5782,-1.4468,-2.6525
09-Sep-2020 11:14:30.605, 0.2083, 0.9276,-0.1815, 0.5340,-0.3380,-0.2469, 1.5326,-1.4493,-2.6999
09-Sep-2020 11:14:30.615, 0.2259, 0.9195,-0.1708, 0.4774,-0.7105,-0.2092, 1.4841,-1.4514,-2.7455
09-Sep-2020 11:14:30.625, 0.2427, 0.9097,-0.1089, 0.4286,-0.7973,-0.1694, 1.4355,-1.4529,-2.7875
09-Sep-2020 11:14:30.635, 0.2740, 0.9025,-0.0753, 0.4404,-0.7244,-0.1485, 1.3892,-1.4538,-2.8263
09-Sep-2020 11:14:30.645, 0.2612, 0.8982,-0.0702, 0.5212,-0.5374,-0.2582, 1.3421,-1.4544,-2.8665
09-Sep-2020 11:14:30.655, 0.2779, 0.8990, 0.0376, 0.4437,-0.4152,-0.3195, 1.2887,-1.4554,-2.9147
09-Sep-2020 11:14:30.665, 0.3445, 0.9612, 0.2689, 0.1226,-0.4662,-0.3000, 1.2412,-1.4570,-2.9585
09-Sep-2020 11:14:30.675, 0.3634, 0.9922, 0.3220,-0.1221,-0.4963,-0.2677, 1.2172,-1.4593,-2.9782
09-Sep-2020 11:14:30.685, 0.3773, 1.0083, 0.2367,-0.1424,-0.3862,-0.2600, 1.2128,-1.4621,-2.9779
09-Sep-2020 11:14:30.694, 0.3828, 0.9820, 0.0831,-0.0531,-0.1066,-0.2465, 1.2123,-1.4650,-2.9746
09-Sep-2020 11:14:30.704, 0.4042, 0.9590,-0.0234, 0.0327, 0.2407,-0.1987, 1.2078,-1.4673,-2.9780
09-Sep-2020 11:14:30.715, 0.3744, 0.9428,-0.0529, 0.1118, 0.5986,-0.2035, 1.2001,-1.4690,-2.9882
09-Sep-2020 11:14:30.724, 0.3173, 0.9270,-0.1017, 0.2096, 0.7050,-0.2786, 1.1879,-1.4704,-3.0062
09-Sep-2020 11:14:30.734, 0.2752, 0.9078,-0.1230, 0.2729, 0.6214,-0.3438, 1.1651,-1.4721,-3.0361
09-Sep-2020 11:14:30.744, 0.2440, 0.8977,-0.0781, 0.2752, 0.5077,-0.3573, 1.1322,-1.4740,-3.0754
09-Sep-2020 11:14:30.754, 0.2159, 0.9097,-0.0216, 0.2481, 0.4550,-0.3593, 1.0954,-1.4759,-3.1174
09-Sep-2020 11:14:30.764, 0.2004, 0.9341, 0.0113, 0.2290, 0.4524,-0.3616, 1.0588,-1.4778, 3.1245
09-Sep-2020 11:14:30.774, 0.1899, 0.9668, 0.0157, 0.2467, 0.5207,-0.3587, 1.0224,-1.4797, 3.0832
09-Sep-2020 11:14:30.784, 0.1854, 1.0007,-0.0076, 0.3040, 0.5603,-0.3773, 0.9831,-1.4813, 3.0387
09-Sep-2020 11:14:30.794, 0.1857, 1.0214,-0.0231, 0.3661, 0.6298,-0.4062, 0.9367,-1.4826, 2.9865
09-Sep-2020 11:14:30.804, 0.1979, 1.0323,-0.0439, 0.4270, 0.6894,-0.4388, 0.8822,-1.4835, 2.9255
09-Sep-2020 11:14:30.814, 0.2030, 1.0406,-0.0754, 0.4875, 0.7542,-0.4824, 0.8196,-1.4839, 2.8558
09-Sep-2020 11:14:30.824, 0.1886, 1.0433,-0.0952, 0.5429, 0.8192,-0.5506, 0.7489,-1.4838, 2.7773
09-Sep-2020 11:14:30.834, 0.1599, 1.0274,-0.0917, 0.5636, 0.8582,-0.6203, 0.6699,-1.4832, 2.6898
09-Sep-2020 11:14:30.844, 0.1333, 0.9991,-0.0671, 0.5304, 0.8012,-0.7006, 0.5850,-1.4822, 2.5961
09-Sep-2020 11:14:30.854, 0.1046, 0.9762,-0.0202, 0.4200, 0.7009,-0.7813, 0.4963,-1.4813, 2.4990
09-Sep-2020 11:14:30.864, 0.1063, 0.9493, 0.0499, 0.2480, 0.5721,-0.7927, 0.4064,-1.4809, 2.4018
09-Sep-2020 11:14:30.874, 0.1332, 0.9287, 0.0765, 0.1017, 0.4121,-0.7096, 0.3214,-1.4813, 2.3108
09-Sep-2020 11:14:30.883, 0.1571, 0.9412, 0.0413, 0.0575, 0.2532,-0.5647, 0.2474,-1.4821, 2.2324
09-Sep-2020 11:14:30.893, 0.1726, 0.9955,-0.0291, 0.0977, 0.0895,-0.4154, 0.1873,-1.4827, 2.1695
09-Sep-2020 11:14:30.904, 0.1749, 1.0777,-0.0611, 0.1298,-0.0133,-0.3316, 0.1405,-1.4824, 2.1216
09-Sep-2020 11:14:30.914, 0.1658, 1.1550,-0.0359, 0.0998,-0.1151,-0.3179, 0.1021,-1.4815, 2.0832
09-Sep-2020 11:14:30.923, 0.1567, 1.2025,-0.0167,-0.0151,-0.2358,-0.3416, 0.0654,-1.4808, 2.0476
09-Sep-2020 11:14:30.933, 0.1752, 1.2195, 0.0258,-0.1743,-0.3566,-0.3437, 0.0263,-1.4811, 2.0106
09-Sep-2020 11:14:30.944, 0.2213, 1.2083, 0.0475,-0.3322,-0.4744,-0.2932,-0.0143,-1.4828, 1.9734
09-Sep-2020 11:14:30.953, 0.2747, 1.1745, 0.0578,-0.4466,-0.5442,-0.2005,-0.0528,-1.4860, 1.9395
09-Sep-2020 11:14:30.963, 0.3314, 1.1231, 0.0467,-0.4969,-0.5822,-0.0748,-0.0847,-1.4902, 1.9129
09-Sep-2020 11:14:30.973, 0.3906, 1.0754, 0.0380,-0.5135,-0.5628, 0.0807,-0.1048,-1.4951, 1.8986
09-Sep-2020 11:14:30.983, 0.4676, 1.0315, 0.0435,-0.5223,-0.4917, 0.3079,-0.1051,-1.5002, 1.9039
09-Sep-2020 11:14:30.993, 0.5603, 0.9959, 0.0499,-0.5536,-0.3898, 0.6161,-0.0698,-1.5056, 1.9441
09-Sep-2020 11:14:31.003, 0.6462, 0.9647, 0.0377,-0.6090,-0.2983, 1.0011, 0.0245,-1.5113, 2.0424
09-Sep-2020 11:14:31.013, 0.7401, 0.9511, 0.0082,-0.6789,-0.2558, 1.4539, 0.2092,-1.5161, 2.2305
09-Sep-2020 11:14:31.023, 0.8325, 0.9726,-0.0027,-0.7360,-0.1851, 1.9299, 0.5034,-1.5173, 2.5277
09-Sep-2020 11:14:31.033, 0.9018, 1.0280, 0.0313,-0.7941,-0.0532, 2.3006, 0.8481,-1.5109, 2.8748
09-Sep-2020 11:14:31.043, 0.9382, 1.0780, 0.1036,-0.8917, 0.1085, 2.4685, 1.1324,-1.4960,-3.1230
09-Sep-2020 11:14:31.053, 0.9388, 1.0841, 0.1930,-0.9974, 0.2236, 2.4058, 1.3278,-1.4758,-2.9279
09-Sep-2020 11:14:31.063, 0.9253, 1.0278, 0.2865,-1.1117, 0.2921, 2.1634, 1.4611,-1.4539,-2.7960
09-Sep-2020 11:14:31.073, 0.8890, 0.9301, 0.3894,-1.2287, 0.4072, 1.8131, 1.5602,-1.4331,-2.6990
09-Sep-2020 11:14:31.083, 0.8035, 0.8616, 0.3115,-1.2195, 0.4422, 1.3558, 1.6421,-1.4146,-2.6202
09-Sep-2020 11:14:31.093, 0.6614, 0.8112, 0.2411,-1.1996, 0.7256, 1.0921, 1.7110,-1.3997,-2.5551
09-Sep-2020 11:14:31.103, 0.5536, 0.7985, 0.1678,-1.1893, 0.9224, 1.0251, 1.7731,-1.3868,-2.4993
09-Sep-2020 11:14:31.113, 0.4432, 0.8142, 0.0300,-1.1896, 0.8933, 0.9639, 1.8296,-1.3741,-2.4509
09-Sep-2020 11:14:31.123, 0.3150, 0.8463,-0.0550,-1.2573, 0.5972, 0.8671, 1.8804,-1.3615,-2.4079
09-Sep-2020 11:14:31.133, 0.2230, 0.8742,-0.0912,-1.4071, 0.0979, 0.7565, 1.9273,-1.3492,-2.3658
09-Sep-2020 11:14:31.143, 0.1561, 0.9171,-0.0927,-1.6035,-0.4852, 0.5988, 1.9723,-1.3370,-2.3206
09-Sep-2020 11:14:31.152, 0.1179, 1.0251,-0.1316,-1.6594,-1.1277, 0.3790, 2.0163,-1.3251,-2.2702
09-Sep-2020 11:14:31.162, 0.0457, 1.1969,-0.2020,-1.4480,-1.6782, 0.0282, 2.0554,-1.3144,-2.2183
09-Sep-2020 11:14:31.172,-0.1023, 1.4556,-0.2172,-1.0375,-2.0661,-0.4986, 2.0853,-1.3074,-2.1701
09-Sep-2020 11:14:31.182,-0.1798, 1.6171,-0.0911,-0.7448,-2.3421,-1.0343, 2.1072,-1.3064,-2.1263
09-Sep-2020 11:14:31.192,-0.1980, 1.6185, 0.2559,-0.6736,-2.1582,-1.3854, 2.1279,-1.3111,-2.0813
09-Sep-2020 11:14:31.202,-0.1438, 1.5067, 0.4717,-0.5883,-2.2201,-1.3438, 2.1552,-1.3189,-2.0305
09-Sep-2020 11:14:31.212,-0.0977, 1.3273, 0.4406,-0.4868,-2.2478,-0.9840, 2.1813,-1.3265,-1.9807
09-Sep-2020 11:14:31.222,-0.1643, 1.2041, 0.3649,-0.3551,-2.3168,-0.5319, 2.1975,-1.3315,-1.9410
09-Sep-2020 11:14:31.232,-0.2299, 1.1179, 0.0951,-0.1399,-2.6316,-0.1902, 2.1986,-1.3338,-1.9160
09-Sep-2020 11:14:31.242,-0.2625, 1.0133,-0.0034, 0.0861,-2.6128, 0.0773, 2.1817,-1.3345,-1.9067
09-Sep-2020 11:14:31.252,-0.2607, 0.9251,-0.0107, 0.2950,-2.3810, 0.3225, 2.1508,-1.3343,-1.9118
09-Sep-2020 11:14:31.262,-0.2040, 0.8512,-0.1014, 0.5729,-1.9644, 0.6196, 2.1093,-1.3331,-1.9302
09-Sep-2020 11:14:31.272,-0.0930, 0.8062,-0.1595, 0.9508,-1.2006, 0.9116, 2.0566,-1.3305,-1.9645
09-Sep-2020 11:14:31.282,-0.0208, 0.7963,-0.1770, 1.2665,-0.2551, 1.2161, 1.9942,-1.3264,-2.0167
09-Sep-2020 11:14:31.292, 0.1356, 0.7558,-0.1465, 1.3712, 0.4810, 1.6674, 1.9275,-1.3198,-2.0828
09-Sep-2020 11:14:31.301, 0.4064, 0.6977,-0.1245, 1.2028, 0.4636, 2.3940, 1.8626,-1.3081,-2.1542
09-Sep-2020 11:14:31.312, 0.7045, 0.6915,-0.0535, 0.8082,-0.1884, 3.2670, 1.8036,-1.2880,-2.2199
09-Sep-2020 11:14:31.322, 0.7836, 0.8047,-0.0008, 0.3558,-1.0857, 3.9445, 1.7540,-1.2579,-2.2695
09-Sep-2020 11:14:31.332, 0.6237, 0.9931, 0.0919, 0.0484,-1.5264, 4.1444, 1.7146,-1.2200,-2.3002
09-Sep-2020 11:14:31.341, 0.3839, 1.1181, 0.1491, 0.0449,-1.4539, 3.9095, 1.6846,-1.1794,-2.3166
09-Sep-2020 11:14:31.351, 0.2689, 1.1021, 0.1465, 0.3755,-0.9556, 3.4567, 1.6601,-1.1409,-2.3281
09-Sep-2020 11:14:31.361, 0.2698, 1.0082, 0.2030, 0.7054,-0.2888, 2.9942, 1.6374,-1.1068,-2.3430
09-Sep-2020 11:14:31.372, 0.2869, 0.8577, 0.2473, 0.7807, 0.2498, 2.5965, 1.6180,-1.0773,-2.3616
09-Sep-2020 11:14:31.381, 0.2625, 0.7381, 0.2610, 0.6607, 0.7762, 2.2390, 1.6048,-1.0517,-2.3796
09-Sep-2020 11:14:31.391,-0.0107, 0.6998, 0.1866, 0.6085, 1.7029, 1.6867, 1.6005,-1.0299,-2.3943
09-Sep-2020 11:14:31.401, 0.0456, 0.5678, 0.0789, 0.4930, 2.1110, 1.3915, 1.6065,-1.0130,-2.4069
09-Sep-2020 11:14:31.411, 0.3255, 0.5338, 0.0429, 0.2773, 1.6471, 1.1030, 1.6183,-0.9993,-2.4171
09-Sep-2020 11:14:31.421, 0.2259, 0.6040, 0.0030, 0.1643, 1.0091, 0.6276, 1.6294,-0.9886,-2.4234
09-Sep-2020 11:14:31.431, 0.1110, 0.6060,-0.0678, 0.1907, 0.5352, 0.1698, 1.6363,-0.9824,-2.4273
09-Sep-2020 11:14:31.441, 0.0787, 0.5848,-0.0479, 0.2581, 0.2512,-0.1563, 1.6386,-0.9807,-2.4310
09-Sep-2020 11:14:31.451, 0.0217, 0.5886,-0.0220, 0.3356, 0.0469,-0.4521, 1.6375,-0.9824,-2.4355
09-Sep-2020 11:14:31.461,-0.0042, 0.5755, 0.0189, 0.3878,-0.0552,-0.6984, 1.6334,-0.9870,-2.4410
09-Sep-2020 11:14:31.471, 0.0363, 0.5673, 0.0491, 0.4172,-0.0247,-0.8599, 1.6276,-0.9940,-2.4473
09-Sep-2020 11:14:31.481, 0.0713, 0.5694, 0.0765, 0.4135, 0.1606,-1.0046, 1.6218,-1.0027,-2.4542
09-Sep-2020 11:14:31.491, 0.1145, 0.5720, 0.0946, 0.4065, 0.3797,-1.1720, 1.6176,-1.0128,-2.4610
09-Sep-2020 11:14:31.501, 0.1989, 0.5754, 0.1058, 0.4024, 0.5720,-1.2891, 1.6155,-1.0246,-2.4678
09-Sep-2020 11:14:31.511, 0.3074, 0.5761, 0.1316, 0.3755, 0.7232,-1.2997, 1.6154,-1.0374,-2.4745
09-Sep-2020 11:14:31.521, 0.4384, 0.5868, 0.1827, 0.2543, 0.8207,-1.1682, 1.6172,-1.0504,-2.4807
09-Sep-2020 11:14:31.531, 0.5983, 0.6146, 0.2612,-0.0052, 0.9412,-0.8830, 1.6220,-1.0619,-2.4846
09-Sep-2020 11:14:31.541, 0.8094, 0.6912, 0.3652,-0.4249, 1.0421,-0.4423, 1.6324,-1.0705,-2.4834
09-Sep-2020 11:14:31.551, 1.1000, 0.8383, 0.4231,-0.9218, 0.9554, 0.1856, 1.6510,-1.0744,-2.4739
09-Sep-2020 11:14:31.561, 1.4896, 1.0237, 0.2910,-1.0815, 0.6391, 0.9962, 1.6763,-1.0716,-2.4556
09-Sep-2020 11:14:31.571, 1.8567, 1.2180,-0.1197,-0.4904, 0.5311, 1.7724, 1.6990,-1.0605,-2.4371
09-Sep-2020 11:14:31.580, 1.8609, 1.3603,-0.5212, 0.4407, 0.7907, 1.8757, 1.7087,-1.0428,-2.4324
09-Sep-2020 11:14:31.590, 1.5546, 1.3498,-0.5817, 1.1619, 0.9975, 1.3570, 1.7052,-1.0252,-2.4456
09-Sep-2020 11:14:31.601, 1.3431, 1.1238,-0.4668, 1.4700, 1.0308, 0.6792, 1.6939,-1.0133,-2.4703
09-Sep-2020 11:14:31.610, 1.1091, 0.8034,-0.3176, 1.5452, 1.1360,-0.0150, 1.6800,-1.0082,-2.4990
09-Sep-2020 11:14:31.620, 0.7802, 0.6836,-0.2153, 1.5050, 1.2788,-0.7660, 1.6671,-1.0099,-2.5276
09-Sep-2020 11:14:31.630, 0.5006, 0.8434,-0.1370, 1.3569, 1.4763,-1.5223, 1.6570,-1.0188,-2.5545
09-Sep-2020 11:14:31.640, 0.3087, 1.1113, 0.0633, 1.0522, 1.6650,-2.4107, 1.6516,-1.0350,-2.5779
09-Sep-2020 11:14:31.650, 0.2376, 1.4586, 0.2235, 0.5256, 1.0251,-3.3042, 1.6532,-1.0598,-2.5947
09-Sep-2020 11:14:31.660, 0.3434, 1.8731, 0.5667,-0.0899,-0.7699,-3.8166, 1.6580,-1.0927,-2.5997
09-Sep-2020 11:14:31.670, 0.5480, 2.3257, 0.9164,-0.4214,-2.6054,-3.7188, 1.6582,-1.1300,-2.5907
09-Sep-2020 11:14:31.681, 0.5827, 2.4301, 0.7619,-0.5259,-3.0747,-3.2602, 1.6490,-1.1662,-2.5734
09-Sep-2020 11:14:31.690, 0.4142, 1.8679, 0.4454,-0.2877,-2.2932,-2.6494, 1.6368,-1.1980,-2.5542
09-Sep-2020 11:14:31.700, 0.0983, 1.2174, 0.2858, 0.1537,-0.9670,-2.1914, 1.6257,-1.2242,-2.5421
09-Sep-2020 11:14:31.710,-0.1506, 0.7798, 0.3205, 0.4199, 0.3987,-1.8484, 1.6149,-1.2461,-2.5434
09-Sep-2020 11:14:31.720,-0.2127, 0.4978, 0.3224, 0.1515, 1.4984,-1.5219, 1.6092,-1.2645,-2.5534
09-Sep-2020 11:14:31.729,-0.1840, 0.3489, 0.2289,-0.3549, 2.1919,-1.2300, 1.6215,-1.2797,-2.5558
09-Sep-2020 11:14:31.739,-0.1181, 0.2620, 0.0660,-0.7043, 2.6078,-0.9434, 1.6574,-1.2916,-2.5409
09-Sep-2020 11:14:31.749,-0.0478, 0.2147,-0.0668,-0.8884, 2.7886,-0.6452, 1.7111,-1.3000,-2.5119
09-Sep-2020 11:14:31.759,-0.0096, 0.2345,-0.1423,-0.9770, 2.8770,-0.3591, 1.7740,-1.3048,-2.4754
09-Sep-2020 11:14:31.769,-0.0033, 0.3243,-0.1377,-1.0663, 3.0516,-0.1461, 1.8403,-1.3059,-2.4364
09-Sep-2020 11:14:31.779,-0.0191, 0.4937,-0.1061,-1.1537, 3.4728,-0.0930, 1.9095,-1.3042,-2.3963
09-Sep-2020 11:14:31.789,-0.0257, 0.6727,-0.1184,-1.2239, 3.8524,-0.1239, 1.9840,-1.3008,-2.3549
09-Sep-2020 11:14:31.799, 0.0035, 0.8593,-0.2390,-1.1841, 3.9199,-0.1552, 2.0631,-1.2966,-2.3124
09-Sep-2020 11:14:31.809, 0.0225, 1.1264,-0.4891,-0.9608, 3.8742,-0.3355, 2.1402,-1.2921,-2.2727
09-Sep-2020 11:14:31.819,-0.1033, 1.3647,-0.4525,-0.7815, 3.6832,-0.6341, 2.2125,-1.2894,-2.2374
09-Sep-2020 11:14:31.829,-0.0981, 1.4854,-0.4586,-0.6165, 3.3710,-0.9292, 2.2836,-1.2894,-2.2016
09-Sep-2020 11:14:31.839,-0.0768, 1.4042,-0.3671,-0.3766, 3.0950,-1.1389, 2.3544,-1.2920,-2.1629
09-Sep-2020 11:14:31.849,-0.0343, 1.1581,-0.4871,-0.0221, 2.3576,-1.2094, 2.4225,-1.2969,-2.1238
09-Sep-2020 11:14:31.859, 0.0370, 0.9200,-0.5024, 0.3422, 1.4715,-1.0989, 2.4792,-1.3043,-2.0892
09-Sep-2020 11:14:31.869, 0.1313, 0.7478,-0.4592, 0.6726, 0.6089,-0.8306, 2.5183,-1.3135,-2.0639
09-Sep-2020 11:14:31.879, 0.1577, 0.6420,-0.3210, 0.9172, 0.2047,-0.5430, 2.5357,-1.3237,-2.0525
09-Sep-2020 11:14:31.889, 0.1368, 0.6124,-0.1850, 1.0978, 0.2061,-0.2984, 2.5347,-1.3342,-2.0558
09-Sep-2020 11:14:31.899, 0.1047, 0.6607,-0.0626, 1.2326, 0.4748,-0.1513, 2.5205,-1.3449,-2.0727
09-Sep-2020 11:14:31.909, 0.0965, 0.7611,-0.1255, 1.3907, 0.4348,-0.0715, 2.4977,-1.3557,-2.1006
09-Sep-2020 11:14:31.919, 0.0961, 0.8577,-0.1158, 1.7309, 0.5440,-0.0789, 2.4644,-1.3671,-2.1392
09-Sep-2020 11:14:31.929, 0.0606, 1.0139,-0.1126, 2.7982, 0.7939,-0.2737, 2.4155,-1.3813,-2.1946
09-Sep-2020 11:14:31.939, 0.0069, 1.1714,-0.1332, 4.1894, 1.1666,-0.6079, 2.3257,-1.4034,-2.2940
09-Sep-2020 11:14:31.949, 0.0375, 1.1891, 0.1231, 4.5266, 1.7992,-0.8423, 2.1505,-1.4337,-2.4832
09-Sep-2020 11:14:31.959, 0.1117, 1.0157, 1.5853, 2.0812, 1.5760,-0.8654, 1.8850,-1.4599,-2.7682
09-Sep-2020 11:14:31.968, 0.3532, 1.1456, 2.0083,-0.0785, 0.8980,-0.6841, 1.7215,-1.4730,-2.9478
09-Sep-2020 11:14:31.978, 0.3961, 1.2014, 0.8694,-0.8329, 1.0432,-0.5045, 1.7411,-1.4797,-2.9374
09-Sep-2020 11:14:31.988, 0.3381, 1.1615, 0.2468,-0.6535, 1.2969,-0.3865, 1.8472,-1.4828,-2.8414
09-Sep-2020 11:14:31.998, 0.3070, 1.0740,-0.1727,-0.0212, 1.2337,-0.3008, 1.9408,-1.4845,-2.7602
09-Sep-2020 11:14:32.008, 0.3175, 0.9650,-0.4188, 0.6137, 0.7853,-0.2336, 1.9676,-1.4871,-2.7453
09-Sep-2020 11:14:32.018, 0.2732, 0.8921,-0.4265, 0.9861, 0.5176,-0.2344, 1.9178,-1.4914,-2.8032
09-Sep-2020 11:14:32.028, 0.2341, 0.8769,-0.2585, 1.1679, 0.7573,-0.2605, 1.8107,-1.4964,-2.9161
09-Sep-2020 11:14:32.038, 0.2238, 0.8828,-0.1850, 1.2121, 1.1863,-0.3226, 1.6662,-1.5009,-3.0687
09-Sep-2020 11:14:32.048, 0.2085, 0.8937,-0.1385, 1.1421, 1.5268,-0.4115, 1.5025,-1.5042, 3.0387
09-Sep-2020 11:14:32.058, 0.2179, 0.9171,-0.1477, 1.0049, 1.6153,-0.5136, 1.3368,-1.5065, 2.8576
09-Sep-2020 11:14:32.068, 0.2451, 0.9381,-0.1292, 0.7930, 1.5382,-0.5779, 1.1787,-1.5082, 2.6832
09-Sep-2020 11:14:32.078, 0.3114, 0.9528,-0.0750, 0.5186, 1.3283,-0.5433, 1.0393,-1.5097, 2.5283
09-Sep-2020 11:14:32.088, 0.3788, 0.9806, 0.0117, 0.2119, 1.1695,-0.4141, 0.9331,-1.5112, 2.4086
09-Sep-2020 11:14:32.098, 0.4341, 1.0250, 0.0665,-0.0703, 0.8753,-0.2243, 0.8737,-1.5130, 2.3375
09-Sep-2020 11:14:32.108, 0.4693, 1.0711, 0.1354,-0.2425, 0.4606,-0.0502, 0.8659,-1.5151, 2.3211
09-Sep-2020 11:14:32.118, 0.4875, 1.1017, 0.2653,-0.2586, 0.0040, 0.0606, 0.8971,-1.5169, 2.3477
09-Sep-2020 11:14:32.128, 0.5047, 1.0969, 0.4187,-0.2609,-0.2693, 0.1358, 0.9420,-1.5179, 2.3926
09-Sep-2020 11:14:32.137, 0.5325, 1.0704, 0.5646,-0.3811,-0.1275, 0.2574, 0.9967,-1.5182, 2.4498
09-Sep-2020 11:14:32.147, 0.5688, 1.0444, 0.4114,-0.5299, 0.0718, 0.4489, 1.0828,-1.5178, 2.5373
09-Sep-2020 11:14:32.157, 0.5970, 1.0053, 0.2142,-0.6588, 0.4355, 0.7169, 1.2069,-1.5158, 2.6608
