Timestamp,accelX,accelY,accelZ,gyroX(rad/s),gyroY(rad/s),gyroZ(rad/s),Roll(rads),Pitch(rads),Yaw(rads)
09-Sep-2020 10:59:56.385, 0.3712,-0.2790,-0.8965,-0.8029, 0.4617, 0.3922,-0.1890, 0.3553,-3.1385
09-Sep-2020 10:59:56.388, 0.3712,-0.2790,-0.8965,-0.9434, 0.3468, 0.2201, 0.4032, 0.2485, 2.9137
09-Sep-2020 10:59:56.394, 0.4391,-0.2515,-0.9429,-1.0306, 0.2585, 0.1061, 0.4032, 0.2485, 2.9137
09-Sep-2020 10:59:56.404, 0.5298,-0.2463,-1.0014,-1.0679, 0.0897, 0.0974, 0.4044, 0.2396, 2.9190
09-Sep-2020 10:59:56.414, 0.5650,-0.2339,-1.0667,-1.0301,-0.1547, 0.1623, 0.4040, 0.2303, 2.9243
09-Sep-2020 10:59:56.424, 0.5226,-0.1752,-1.1085,-0.9214,-0.3781, 0.2160, 0.4012, 0.2216, 2.9299
09-Sep-2020 10:59:56.434, 0.4891,-0.1385,-1.1490,-0.7574,-0.5594, 0.2522, 0.3962, 0.2141, 2.9356
09-Sep-2020 10:59:56.444, 0.4848,-0.1653,-1.1877,-0.5313,-0.6424, 0.3535, 0.3896, 0.2082, 2.9411
09-Sep-2020 10:59:56.454, 0.4797,-0.2238,-1.2058,-0.3235,-0.5126, 0.4795, 0.3822, 0.2047, 2.9465
09-Sep-2020 10:59:56.464, 0.4769,-0.2312,-1.2171,-0.1371,-0.3645, 0.5929, 0.3759, 0.2035, 2.9523
09-Sep-2020 10:59:56.474, 0.4689,-0.1796,-1.1876, 0.0269,-0.3291, 0.6479, 0.3710, 0.2044, 2.9585
09-Sep-2020 10:59:56.484, 0.4478,-0.1474,-1.1419, 0.2217,-0.3387, 0.6572, 0.3664, 0.2071, 2.9645
09-Sep-2020 10:59:56.494, 0.4229,-0.1476,-1.0707, 0.3961,-0.3018, 0.6423, 0.3619, 0.2115, 2.9700
09-Sep-2020 10:59:56.504, 0.3719,-0.1877,-1.0490, 0.4764,-0.2347, 0.5865, 0.3579, 0.2175, 2.9748
09-Sep-2020 10:59:56.514, 0.3137,-0.2458,-1.0331, 0.3946,-0.0017, 0.4218, 0.3548, 0.2239, 2.9787
09-Sep-2020 10:59:56.524, 0.2782,-0.2735,-1.0667, 0.2226, 0.0927, 0.1722, 0.3541, 0.2290, 2.9814
09-Sep-2020 10:59:56.534, 0.2626,-0.2658,-1.0126, 0.0472, 0.1020,-0.1560, 0.3548, 0.2317, 2.9823
09-Sep-2020 10:59:56.544, 0.2600,-0.2548,-0.8780,-0.0641, 0.1092,-0.4967, 0.3561, 0.2317, 2.9806
09-Sep-2020 10:59:56.554, 0.2538,-0.2175,-0.7993,-0.0834,-0.0157,-0.8486, 0.3582, 0.2295, 2.9761
09-Sep-2020 10:59:56.564, 0.2545,-0.1536,-0.8092,-0.0096,-0.2743,-1.1956, 0.3597, 0.2259, 2.9683
09-Sep-2020 10:59:56.574, 0.2639,-0.1022,-0.9530, 0.1831,-0.7192,-1.5171, 0.3593, 0.2217, 2.9570
09-Sep-2020 10:59:56.584, 0.2564,-0.0772,-1.0919, 0.4845,-1.1479,-1.8155, 0.3554, 0.2183, 2.9419
09-Sep-2020 10:59:56.594, 0.2354,-0.0681,-1.0749, 0.8193,-1.3603,-2.0832, 0.3482, 0.2167, 2.9229
09-Sep-2020 10:59:56.603, 0.2275,-0.0476,-0.9197, 1.0755,-1.3674,-2.3126, 0.3397, 0.2173, 2.9002
09-Sep-2020 10:59:56.613, 0.2632,-0.0329,-0.9646, 1.2826,-1.5925,-2.4661, 0.3315, 0.2200, 2.8744
09-Sep-2020 10:59:56.623, 0.2210, 0.0035,-0.9119, 1.2997,-2.1708,-2.5355, 0.3216, 0.2241, 2.8466
09-Sep-2020 10:59:56.633, 0.2760, 0.0114,-0.8486, 1.0776,-3.0589,-2.3903, 0.3061, 0.2286, 2.8180
09-Sep-2020 10:59:56.644, 0.3289,-0.0440,-0.7611, 0.6861,-3.4902,-1.7048, 0.2820, 0.2320, 2.7920
09-Sep-2020 10:59:56.653, 0.3233,-0.1067,-0.6784, 0.2992,-3.3095,-0.9099, 0.2519, 0.2341, 2.7735
09-Sep-2020 10:59:56.663, 0.2224,-0.1833,-0.5134,-0.1492,-2.4162,-0.6343, 0.2218, 0.2348, 2.7634
09-Sep-2020 10:59:56.673, 0.1362,-0.2625,-0.4766,-0.4844,-1.5017,-0.5888, 0.1992, 0.2321, 2.7573
09-Sep-2020 10:59:56.683, 0.1475,-0.2539,-0.5305,-0.6945,-0.9159,-0.3083, 0.1850, 0.2264, 2.7526
09-Sep-2020 10:59:56.693, 0.2086,-0.2879,-0.6495,-0.7927,-0.4386, 0.0810, 0.1763, 0.2192, 2.7509
09-Sep-2020 10:59:56.703, 0.2506,-0.3404,-0.8610,-0.6260,-0.3224, 0.5095, 0.1712, 0.2118, 2.7531
09-Sep-2020 10:59:56.713, 0.2623,-0.2485,-0.8927,-0.3313,-0.3281, 0.8404, 0.1667, 0.2066, 2.7593
09-Sep-2020 10:59:56.723, 0.2815,-0.0247,-0.8292,-0.0083,-0.2709, 0.9655, 0.1616, 0.2048, 2.7682
09-Sep-2020 10:59:56.733, 0.2034, 0.1161,-0.6687, 0.1124, 0.1401, 0.9000, 0.1571, 0.2062, 2.7779
09-Sep-2020 10:59:56.743, 0.0915, 0.0921,-0.6710,-0.0190, 0.6900, 0.7491, 0.1568, 0.2085, 2.7868
09-Sep-2020 10:59:56.753, 0.0734, 0.0280,-0.8470,-0.2086, 1.0057, 0.6758, 0.1619, 0.2095, 2.7945
09-Sep-2020 10:59:56.763, 0.1094, 0.0009,-1.0241,-0.3067, 0.9501, 0.6859, 0.1701, 0.2087, 2.8017
09-Sep-2020 10:59:56.773, 0.1124, 0.0687,-1.0439,-0.2349, 0.6074, 0.6500, 0.1778, 0.2070, 2.8092
09-Sep-2020 10:59:56.783, 0.1486, 0.0880,-1.0082,-0.0074, 0.0371, 0.5878, 0.1822, 0.2060, 2.8161
09-Sep-2020 10:59:56.793, 0.1978, 0.0240,-0.9554, 0.2537,-0.5278, 0.5918, 0.1814, 0.2071, 2.8221
09-Sep-2020 10:59:56.803, 0.2782,-0.0164,-0.9534, 0.4077,-0.9830, 0.6620, 0.1750, 0.2106, 2.8277
09-Sep-2020 10:59:56.812, 0.2578, 0.0185,-0.8809, 0.2783,-0.8757, 0.6261, 0.1644, 0.2156, 2.8337
09-Sep-2020 10:59:56.822, 0.2172, 0.0671,-0.9353, 0.0389,-0.9766, 0.4715, 0.1542, 0.2193, 2.8395
09-Sep-2020 10:59:56.833, 0.1495, 0.0941,-0.9709,-0.2124,-1.3965, 0.2861, 0.1432, 0.2204, 2.8443
09-Sep-2020 10:59:56.842, 0.0249, 0.0662,-0.9329,-0.4865,-1.7087, 0.0765, 0.1287, 0.2187, 2.8475
09-Sep-2020 10:59:56.853,-0.0670, 0.0122,-0.8659,-0.7305,-1.6963,-0.0784, 0.1116, 0.2140, 2.8490
09-Sep-2020 10:59:56.862,-0.0513,-0.0125,-0.8143,-0.8720,-1.2885,-0.1809, 0.0949, 0.2068, 2.8491
09-Sep-2020 10:59:56.872, 0.0256,-0.0156,-0.8443,-0.9318,-0.8637,-0.1687, 0.0823, 0.1981, 2.8482
09-Sep-2020 10:59:56.882, 0.1081,-0.0051,-0.9223,-0.9592,-0.7496,-0.0744, 0.0736, 0.1888, 2.8474
09-Sep-2020 10:59:56.892, 0.1326, 0.0289,-0.9833,-1.0099,-0.9340, 0.0314, 0.0660, 0.1793, 2.8474
09-Sep-2020 10:59:56.903, 0.1386, 0.0398,-0.9683,-1.1108,-1.1513, 0.1124, 0.0565, 0.1692, 2.8484
09-Sep-2020 10:59:56.912, 0.1188, 0.0296,-0.9439,-1.2200,-1.1567, 0.1375, 0.0449, 0.1583, 2.8501
09-Sep-2020 10:59:56.922, 0.0185, 0.0166,-1.0574,-1.2865,-1.2424, 0.0912, 0.0330, 0.1463, 2.8520
09-Sep-2020 10:59:56.932,-0.1083,-0.0086,-1.1305,-1.2981,-1.3353, 0.0034, 0.0204, 0.1336, 2.8533
09-Sep-2020 10:59:56.942,-0.1557,-0.0374,-1.1459,-1.2298,-1.3543,-0.0902, 0.0071, 0.1207, 2.8536
09-Sep-2020 10:59:56.952,-0.0647,-0.0370,-1.1237,-1.1194,-1.4334,-0.0846,-0.0063, 0.1086, 2.8528
09-Sep-2020 10:59:56.962, 0.0201, 0.0025,-1.0602,-1.0144,-1.5958, 0.0149,-0.0205, 0.0975, 2.8520
09-Sep-2020 10:59:56.972, 0.0168, 0.0239,-1.0475,-0.9119,-1.7166, 0.1485,-0.0364, 0.0874, 2.8519
09-Sep-2020 10:59:56.982,-0.0133,-0.0038,-1.0797,-0.7706,-1.7925, 0.2775,-0.0536, 0.0783, 2.8531
09-Sep-2020 10:59:56.992,-0.0598,-0.0294,-1.0784,-0.6335,-1.7878, 0.3868,-0.0715, 0.0705, 2.8554
09-Sep-2020 10:59:57.002,-0.1272,-0.0124,-1.1064,-0.5038,-1.7357, 0.4381,-0.0895, 0.0639, 2.8588
09-Sep-2020 10:59:57.012,-0.1498, 0.0126,-1.1235,-0.4037,-1.7512, 0.4515,-0.1071, 0.0585, 2.8627
09-Sep-2020 10:59:57.021,-0.1421, 0.0209,-1.0439,-0.3885,-1.7389, 0.4778,-0.1248, 0.0540, 2.8668
09-Sep-2020 10:59:57.031,-0.1747, 0.0136,-0.8955,-0.7363,-1.3246, 0.5991,-0.1419, 0.0492, 2.8711
09-Sep-2020 10:59:57.041,-0.1611, 0.0255,-0.9146,-1.0888,-1.1763, 0.7825,-0.1555, 0.0411, 2.8760
09-Sep-2020 10:59:57.051,-0.1410, 0.0142,-0.8121,-1.3761,-0.8745, 0.9535,-0.1673, 0.0292, 2.8821
09-Sep-2020 10:59:57.062,-0.0656, 0.0199,-0.7451,-1.5339,-0.4125, 1.1988,-0.1761, 0.0142, 2.8892
09-Sep-2020 10:59:57.071, 0.0104, 0.0849,-0.6968,-1.6129, 0.2550, 1.4629,-0.1801,-0.0029, 2.8983
09-Sep-2020 10:59:57.081,-0.0427, 0.1829,-0.7622,-1.6193, 0.6978, 1.6521,-0.1776,-0.0212, 2.9099
09-Sep-2020 10:59:57.091,-0.2576, 0.2871,-1.0334,-1.5305, 0.5005, 1.5869,-0.1706,-0.0398, 2.9232
09-Sep-2020 10:59:57.101,-0.4805, 0.2905,-1.3842,-1.3986,-0.3200, 1.1606,-0.1655,-0.0574, 2.9361
09-Sep-2020 10:59:57.111,-0.4140, 0.1370,-1.4994,-1.1453,-1.0829, 0.6477,-0.1681,-0.0729, 2.9452
09-Sep-2020 10:59:57.121,-0.3099, 0.1475,-1.2596,-0.8283,-1.3524, 0.2102,-0.1782,-0.0852, 2.9498
09-Sep-2020 10:59:57.131,-0.2783, 0.2715,-1.1178,-0.3577,-1.0848,-0.0952,-0.1912,-0.0935, 2.9505
09-Sep-2020 10:59:57.141,-0.1836, 0.2126,-0.9608, 0.0693,-0.6526,-0.1771,-0.2021,-0.0969, 2.9491
09-Sep-2020 10:59:57.151,-0.1758, 0.1600,-0.9519, 0.5233,-0.2856,-0.1142,-0.2088,-0.0959, 2.9477
09-Sep-2020 10:59:57.161,-0.1673, 0.1748,-1.0330, 0.9914,-0.0970, 0.0454,-0.2117,-0.0905, 2.9478
09-Sep-2020 10:59:57.171,-0.1678, 0.1752,-1.0857, 1.3900,-0.1045, 0.2771,-0.2126,-0.0810, 2.9504
09-Sep-2020 10:59:57.181,-0.1835, 0.1310,-1.1432, 1.7240,-0.2118, 0.5511,-0.2133,-0.0681, 2.9561
09-Sep-2020 10:59:57.191,-0.3109, 0.1324,-1.1850, 1.9654,-0.3463, 0.7081,-0.2149,-0.0525, 2.9651
09-Sep-2020 10:59:57.201,-0.3977, 0.0879,-1.2547, 2.1230,-0.3158, 0.6928,-0.2178,-0.0349, 2.9762
09-Sep-2020 10:59:57.211,-0.3104,-0.0174,-1.1476, 2.1298, 0.0935, 0.6869,-0.2204,-0.0158, 2.9876
09-Sep-2020 10:59:57.221,-0.1952,-0.0053,-1.0223, 1.7722, 0.3993, 0.7568,-0.2195, 0.0031, 2.9990
09-Sep-2020 10:59:57.231,-0.0934, 0.0014,-0.9502, 1.1776, 0.4661, 0.8611,-0.2158, 0.0185, 3.0102
09-Sep-2020 10:59:57.240,-0.0757, 0.0410,-0.8415, 0.6359, 0.6554, 0.9352,-0.2113, 0.0282, 3.0212
09-Sep-2020 10:59:57.251,-0.1974, 0.1252,-0.8328, 0.2517, 0.7227, 0.8635,-0.2052, 0.0326, 3.0316
09-Sep-2020 10:59:57.260,-0.2956, 0.1333,-1.0152, 0.1366, 0.5387, 0.6843,-0.1985, 0.0336, 3.0405
09-Sep-2020 10:59:57.271,-0.2930, 0.0421,-1.1851, 0.0899, 0.0381, 0.4363,-0.1936, 0.0336, 3.0475
09-Sep-2020 10:59:57.280,-0.2069, 0.0091,-1.2404, 0.0186,-0.5941, 0.2057,-0.1935, 0.0337, 3.0521
09-Sep-2020 10:59:57.290,-0.2206,-0.0951,-1.0819,-0.0559,-0.6593, 0.0905,-0.1991, 0.0335, 3.0542
09-Sep-2020 10:59:57.300,-0.2372,-0.0833,-1.0188,-0.1078,-0.5302, 0.0635,-0.2056, 0.0328, 3.0551
09-Sep-2020 10:59:57.310,-0.2179,-0.0910,-0.9730,-0.1918,-0.4580, 0.0882,-0.2109, 0.0316, 3.0556
09-Sep-2020 10:59:57.320,-0.1871,-0.0970,-0.8960,-0.3702,-0.4851, 0.1488,-0.2156, 0.0295, 3.0562
09-Sep-2020 10:59:57.330,-0.2158,-0.0573,-0.8327,-0.5842,-0.5359, 0.1695,-0.2205, 0.0256, 3.0569
09-Sep-2020 10:59:57.340,-0.2717,-0.0047,-0.7950,-0.7888,-0.4626, 0.1126,-0.2257, 0.0196, 3.0573
09-Sep-2020 10:59:57.350,-0.3157, 0.0425,-0.7841,-0.9760,-0.2012, 0.0198,-0.2302, 0.0117, 3.0566
09-Sep-2020 10:59:57.360,-0.3439, 0.0549,-0.8352,-1.0616, 0.1470,-0.0590,-0.2322, 0.0023, 3.0547
09-Sep-2020 10:59:57.370,-0.3276, 0.0300,-0.9369,-1.0652, 0.2859,-0.0980,-0.2309,-0.0078, 3.0518
09-Sep-2020 10:59:57.382,-0.2631, 0.0089,-1.0145,-1.0173, 0.1897,-0.0798,-0.2282,-0.0179, 3.0486
09-Sep-2020 10:59:57.390,-0.2122, 0.0186,-1.0668,-0.8589, 0.0580,-0.0378,-0.2264,-0.0275, 3.0457
09-Sep-2020 10:59:57.400,-0.2097, 0.0368,-1.1289,-0.5864,-0.0947,-0.0458,-0.2259,-0.0356, 3.0435
09-Sep-2020 10:59:57.410,-0.2013, 0.0444,-1.2191,-0.1941,-0.3141,-0.0714,-0.2270,-0.0411, 3.0418
09-Sep-2020 10:59:57.420,-0.1733,-0.0056,-1.2817, 0.2490,-0.5793,-0.0221,-0.2302,-0.0428, 3.0408
09-Sep-2020 10:59:57.430,-0.1896,-0.0047,-1.1606, 0.5748,-0.7838, 0.0848,-0.2360,-0.0404, 3.0413
09-Sep-2020 10:59:57.439,-0.5020, 0.3344,-0.3227,-0.1220, 0.1685,-0.2403,-0.2426,-0.0359, 3.0429
09-Sep-2020 10:59:57.450,-0.4605, 0.2699,-0.6224,-0.6071, 0.8666,-0.3953,-0.2411,-0.0364, 3.0406
09-Sep-2020 10:59:57.460,-0.2233,-0.0707,-1.1812,-0.4494, 0.7898,-0.1564,-0.2333,-0.0410, 3.0359
09-Sep-2020 10:59:57.469,-0.2733, 0.0562,-1.0562,-0.3588, 0.7362,-0.1197,-0.2255,-0.0450, 3.0332
09-Sep-2020 10:59:57.480,-0.1940, 0.0604,-1.1113,-0.2243, 0.6361,-0.0490,-0.2183,-0.0482, 3.0314
09-Sep-2020 10:59:57.489,-0.1537, 0.0292,-1.1435,-0.0824, 0.4860, 0.0338,-0.2120,-0.0503, 3.0305
09-Sep-2020 10:59:57.500,-0.1746, 0.0111,-1.0836,-0.0136, 0.3995, 0.0813,-0.2072,-0.0512, 3.0307
09-Sep-2020 10:59:57.509,-0.2109,-0.0118,-1.0785, 0.0484, 0.3814, 0.0787,-0.2031,-0.0514, 3.0315
09-Sep-2020 10:59:57.519,-0.3086,-0.0195,-1.0707, 0.1094, 0.4626,-0.0414,-0.1993,-0.0511, 3.0324
09-Sep-2020 10:59:57.529,-0.3313,-0.0212,-1.0534, 0.1473, 0.6813,-0.1585,-0.1946,-0.0500, 3.0323
09-Sep-2020 10:59:57.539,-0.3250,-0.0109,-1.1012, 0.2057, 0.8438,-0.2429,-0.1879,-0.0482, 3.0311
09-Sep-2020 10:59:57.549,-0.2921,-0.0033,-1.1489, 0.2633, 0.8646,-0.2753,-0.1797,-0.0457, 3.0292
09-Sep-2020 10:59:57.559,-0.2275,-0.0112,-1.1782, 0.2673, 0.6765,-0.2434,-0.1713,-0.0427, 3.0271
09-Sep-2020 10:59:57.569,-0.1909,-0.0375,-1.1833, 0.2144, 0.3090,-0.2111,-0.1648,-0.0397, 3.0252
09-Sep-2020 10:59:57.579,-0.1997,-0.0797,-1.1427, 0.1250,-0.1525,-0.2942,-0.1619,-0.0372, 3.0235
09-Sep-2020 10:59:57.589,-0.2280,-0.1123,-1.0591,-0.0193,-0.5873,-0.5129,-0.1635,-0.0355, 3.0208
09-Sep-2020 10:59:57.599,-0.2314,-0.0822,-1.0389,-0.1247,-0.9319,-0.8023,-0.1695,-0.0348, 3.0157
09-Sep-2020 10:59:57.609,-0.2067,-0.0210,-1.0227,-0.1145,-1.0057,-1.0843,-0.1789,-0.0346, 3.0078
09-Sep-2020 10:59:57.619,-0.1558, 0.0126,-0.9738,-0.0430,-0.7656,-1.2330,-0.1890,-0.0337, 2.9971
09-Sep-2020 10:59:57.629,-0.1245, 0.0092,-0.9550, 0.0945,-0.4512,-1.2961,-0.1970,-0.0317, 2.9851
09-Sep-2020 10:59:57.639,-0.1087,-0.0139,-0.9719, 0.2672,-0.2141,-1.3228,-0.2019,-0.0282, 2.9728
09-Sep-2020 10:59:57.648,-0.1062,-0.0590,-1.0040, 0.4036,-0.1381,-1.2846,-0.2045,-0.0229, 2.9605
09-Sep-2020 10:59:57.659,-0.1171,-0.0798,-1.0255, 0.4758,-0.2271,-1.2299,-0.2062,-0.0164, 2.9489
09-Sep-2020 10:59:57.669,-0.1463,-0.0961,-1.0486, 0.4868,-0.4375,-1.2077,-0.2087,-0.0093, 2.9380
09-Sep-2020 10:59:57.678,-0.1738,-0.0980,-1.0801, 0.5235,-0.5923,-1.2273,-0.2131,-0.0020, 2.9273
09-Sep-2020 10:59:57.689,-0.1467,-0.0934,-1.0597, 0.5496,-0.5593,-1.2175,-0.2188, 0.0057, 2.9166
09-Sep-2020 10:59:57.698,-0.1187,-0.0925,-1.0310, 0.5075,-0.4165,-1.2222,-0.2242, 0.0137, 2.9061
09-Sep-2020 10:59:57.708,-0.1099,-0.1089,-1.0282, 0.3703,-0.3091,-1.3007,-0.2282, 0.0213, 2.8954
09-Sep-2020 10:59:57.718,-0.1111,-0.1445,-1.0213, 0.1295,-0.3069,-1.4619,-0.2310, 0.0278, 2.8836
09-Sep-2020 10:59:57.728,-0.1453,-0.1635,-1.0140,-0.1861,-0.4452,-1.7068,-0.2338, 0.0324, 2.8697
09-Sep-2020 10:59:57.739,-0.1799,-0.1723,-0.9878,-0.4841,-0.5079,-1.9564,-0.2376, 0.0346, 2.8529
09-Sep-2020 10:59:57.748,-0.1938,-0.1364,-0.9993,-0.5999,-0.3049,-2.1130,-0.2418, 0.0347, 2.8330
09-Sep-2020 10:59:57.758,-0.1766,-0.0702,-1.0185,-0.5465, 0.0629,-2.1661,-0.2440, 0.0340, 2.8113
09-Sep-2020 10:59:57.768,-0.1198,-0.0443,-1.0118,-0.4610, 0.3616,-2.1233,-0.2426, 0.0340, 2.7892
09-Sep-2020 10:59:57.778,-0.0948,-0.0324,-1.0137,-0.3995, 0.4828,-2.0870,-0.2384, 0.0346, 2.7676
09-Sep-2020 10:59:57.788,-0.0459,-0.0223,-0.9954,-0.4118, 0.4978,-2.0627,-0.2330, 0.0355, 2.7466
09-Sep-2020 10:59:57.798,-0.0235,-0.0299,-0.9861,-0.4743, 0.4190,-2.1090,-0.2273, 0.0362, 2.7257
09-Sep-2020 10:59:57.808,-0.0451,-0.0346,-1.0096,-0.4907, 0.3124,-2.2607,-0.2224, 0.0364, 2.7041
09-Sep-2020 10:59:57.818,-0.0347,-0.0301,-0.9957,-0.4563, 0.3257,-2.4339,-0.2184, 0.0366, 2.6812
09-Sep-2020 10:59:57.828, 0.0076,-0.0254,-0.9746,-0.4116, 0.3439,-2.5874,-0.2143, 0.0373, 2.6566
09-Sep-2020 10:59:57.838, 0.0094,-0.0417,-1.0042,-0.3273, 0.1968,-2.7560,-0.2100, 0.0388, 2.6306
09-Sep-2020 10:59:57.848,-0.0051,-0.0593,-0.9993,-0.2144, 0.0438,-2.9458,-0.2069, 0.0413, 2.6032
09-Sep-2020 10:59:57.857,-0.0145,-0.0892,-0.9735,-0.0894,-0.0284,-3.1032,-0.2052, 0.0452, 2.5741
09-Sep-2020 10:59:57.867,-0.0761,-0.0951,-0.9761, 0.0502,-0.0496,-3.2662,-0.2040, 0.0507, 2.5437
09-Sep-2020 10:59:57.878,-0.0963,-0.0859,-0.9776, 0.1842,-0.0647,-3.3768,-0.2028, 0.0577, 2.5121
09-Sep-2020 10:59:57.887,-0.1291,-0.0771,-0.9702, 0.3078,-0.0553,-3.4473,-0.2014, 0.0663, 2.4796
09-Sep-2020 10:59:57.898,-0.1550,-0.0808,-0.9510, 0.4003,-0.0756,-3.4823,-0.1996, 0.0761, 2.4466
09-Sep-2020 10:59:57.907,-0.1597,-0.0931,-0.9318, 0.4917,-0.1291,-3.4884,-0.1977, 0.0868, 2.4134
09-Sep-2020 10:59:57.917,-0.1655,-0.0988,-0.8939, 0.5860,-0.1170,-3.4772,-0.1959, 0.0984, 2.3803
09-Sep-2020 10:59:57.927,-0.1447,-0.1069,-0.8405, 0.6191,-0.0891,-3.4194,-0.1936, 0.1108, 2.3474
09-Sep-2020 10:59:57.937,-0.1290,-0.1339,-0.8325, 0.5856,-0.2387,-3.3441,-0.1909, 0.1234, 2.3150
09-Sep-2020 10:59:57.947,-0.2016,-0.1470,-0.8670, 0.5720,-0.5383,-3.3472,-0.1892, 0.1354, 2.2832
09-Sep-2020 10:59:57.957,-0.3197,-0.1694,-0.8312, 0.5041,-0.2673,-3.4227,-0.1897, 0.1473, 2.2513
09-Sep-2020 10:59:57.967,-0.3875,-0.1493,-0.8797, 0.5285,-0.0924,-3.5074,-0.1878, 0.1587, 2.2185
09-Sep-2020 10:59:57.977,-0.3983,-0.1442,-0.8557, 0.5672, 0.3871,-3.4641,-0.1830, 0.1703, 2.1849
09-Sep-2020 10:59:57.987,-0.4108,-0.1567,-0.8857, 0.6134, 0.9968,-3.2943,-0.1733, 0.1820, 2.1516
09-Sep-2020 10:59:57.997,-0.4169,-0.1747,-0.9512, 0.6201, 1.8050,-3.0960,-0.1570, 0.1935, 2.1198
09-Sep-2020 10:59:58.007,-0.4030,-0.2074,-1.0508, 0.4858, 1.7607,-2.8217,-0.1338, 0.2040, 2.0897
09-Sep-2020 10:59:58.017,-0.3761,-0.2576,-1.0771, 0.1369, 1.3383,-2.5097,-0.1108, 0.2121, 2.0619
09-Sep-2020 10:59:58.027,-0.3624,-0.2933,-1.0769,-0.2260, 0.9235,-2.2624,-0.0921, 0.2160, 2.0367
09-Sep-2020 10:59:58.037,-0.3325,-0.3267,-1.0313,-0.3737, 0.7781,-2.0866,-0.0778, 0.2158, 2.0136
09-Sep-2020 10:59:58.047,-0.2819,-0.3459,-0.9577,-0.2761, 0.9823,-2.0149,-0.0653, 0.2138, 1.9921
09-Sep-2020 10:59:58.057,-0.2314,-0.3387,-0.9187,-0.0811, 1.2880,-2.0098,-0.0510, 0.2123, 1.9715
09-Sep-2020 10:59:58.067,-0.1804,-0.3213,-0.9394,-0.0293, 1.2659,-1.9040,-0.0342, 0.2123, 1.9512
09-Sep-2020 10:59:58.077,-0.1608,-0.2949,-0.9813,-0.1225, 0.8844,-1.6740,-0.0178, 0.2124, 1.9320
09-Sep-2020 10:59:58.086,-0.1597,-0.2593,-1.0370,-0.1820, 0.7309,-1.3810,-0.0052, 0.2115, 1.9150
09-Sep-2020 10:59:58.096,-0.1743,-0.2406,-1.0992,-0.1850, 0.7236,-1.1271, 0.0050, 0.2098, 1.9010
09-Sep-2020 10:59:58.107,-0.2601,-0.1876,-1.0802,-0.0907, 0.7923,-0.8818, 0.0146, 0.2079, 1.8897
09-Sep-2020 10:59:58.116,-0.2603,-0.2065,-1.1596, 0.0771, 0.8196,-0.6921, 0.0243, 0.2069, 1.8808
09-Sep-2020 10:59:58.126,-0.2268,-0.2050,-1.1691, 0.1756, 0.7877,-0.6835, 0.0339, 0.2075, 1.8737
09-Sep-2020 10:59:58.136,-0.1655,-0.2149,-1.1453, 0.2208, 0.7854,-0.7416, 0.0432, 0.2090, 1.8667
09-Sep-2020 10:59:58.146,-0.0990,-0.2309,-1.1410, 0.3069, 0.8225,-0.8092, 0.0526, 0.2109, 1.8591
09-Sep-2020 10:59:58.156,-0.0524,-0.2353,-1.1720, 0.4474, 0.7974,-0.8002, 0.0624, 0.2135, 1.8508
09-Sep-2020 10:59:58.166,-0.0116,-0.2386,-1.2473, 0.7223, 0.6253,-0.6736, 0.0721, 0.2176, 1.8425
09-Sep-2020 10:59:58.176,-0.0703,-0.2544,-1.2843, 1.1090, 0.1719,-0.5864, 0.0797, 0.2243, 1.8352
09-Sep-2020 10:59:58.186,-0.2175,-0.2538,-1.2154, 1.4623,-0.4466,-0.8044, 0.0829, 0.2348, 1.8281
09-Sep-2020 10:59:58.196,-0.2744,-0.2611,-1.1352, 1.7752,-0.9979,-1.2659, 0.0808, 0.2487, 1.8186
09-Sep-2020 10:59:58.206,-0.1988,-0.2467,-0.9169, 1.8713,-1.2516,-1.6556, 0.0747, 0.2653, 1.8043
09-Sep-2020 10:59:58.216,-0.1076,-0.2559,-0.6879, 1.7270,-1.0994,-1.8436, 0.0674, 0.2826, 1.7861
09-Sep-2020 10:59:58.226,-0.0880,-0.2998,-0.6401, 1.4568,-0.8159,-1.9250, 0.0623, 0.2985, 1.7660
09-Sep-2020 10:59:58.236,-0.0802,-0.3261,-0.5895, 1.1827,-0.3760,-1.9491, 0.0606, 0.3118, 1.7451
09-Sep-2020 10:59:58.246,-0.0938,-0.3291,-0.5558, 0.9381, 0.1354,-1.9653, 0.0634, 0.3225, 1.7241
09-Sep-2020 10:59:58.255,-0.0934,-0.3500,-0.5644, 0.7241, 0.5810,-1.9919, 0.0715, 0.3305, 1.7029
09-Sep-2020 10:59:58.266,-0.0798,-0.3771,-0.5831, 0.5743, 0.9177,-2.0241, 0.0842, 0.3362, 1.6814
09-Sep-2020 10:59:58.275,-0.0630,-0.3970,-0.5994, 0.4975, 1.1169,-2.0677, 0.1005, 0.3401, 1.6597
09-Sep-2020 10:59:58.286,-0.0310,-0.4086,-0.6099, 0.4699, 1.1632,-2.1253, 0.1190, 0.3429, 1.6375
09-Sep-2020 10:59:58.296, 0.0182,-0.3991,-0.6183, 0.4430, 1.0634,-2.2041, 0.1381, 0.3448, 1.6146
09-Sep-2020 10:59:58.305, 0.0893,-0.3726,-0.6058, 0.4152, 0.9391,-2.2900, 0.1567, 0.3460, 1.5909
09-Sep-2020 10:59:58.316, 0.1769,-0.3094,-0.5545, 0.3460, 0.9138,-2.3565, 0.1744, 0.3464, 1.5664
09-Sep-2020 10:59:58.325, 0.2773,-0.2688,-0.5257, 0.1900, 0.9241,-2.3519, 0.1920, 0.3455, 1.5413
09-Sep-2020 10:59:58.335, 0.3759,-0.2658,-0.5162,-0.0460, 0.9418,-2.2364, 0.2095, 0.3427, 1.5167
09-Sep-2020 10:59:58.345, 0.4427,-0.2779,-0.5320,-0.3260, 0.9251,-2.0521, 0.2265, 0.3375, 1.4939
09-Sep-2020 10:59:58.355, 0.4645,-0.2741,-0.5694,-0.5908, 0.8789,-1.8596, 0.2422, 0.3296, 1.4738
09-Sep-2020 10:59:58.366, 0.4624,-0.2445,-0.6246,-0.7879, 0.8347,-1.7205, 0.2565, 0.3195, 1.4564
09-Sep-2020 10:59:58.375, 0.4655,-0.2133,-0.6753,-0.8662, 0.7949,-1.6249, 0.2695, 0.3076, 1.4411
09-Sep-2020 10:59:58.385, 0.4841,-0.1844,-0.7124,-0.8468, 0.7025,-1.5401, 0.2815, 0.2950, 1.4274
09-Sep-2020 10:59:58.395, 0.5051,-0.1510,-0.7543,-0.7850, 0.4670,-1.4485, 0.2920, 0.2827, 1.4146
09-Sep-2020 10:59:58.405, 0.4537,-0.0582,-1.1014,-0.3601,-0.3341,-1.4984, 0.2993, 0.2713, 1.4025
09-Sep-2020 10:59:58.415, 0.5722,-0.1665,-0.9474,-0.1071,-0.8211,-1.3268, 0.3001, 0.2633, 1.3892
09-Sep-2020 10:59:58.425, 0.5864,-0.0762,-1.0866, 0.1449,-1.6590,-1.1985, 0.2948, 0.2585, 1.3765
09-Sep-2020 10:59:58.435, 0.5952,-0.0386,-0.9930, 0.3512,-2.1062,-1.0599, 0.2817, 0.2565, 1.3643
09-Sep-2020 10:59:58.445, 0.5928,-0.0509,-0.8423, 0.3897,-2.2518,-0.8590, 0.2638, 0.2570, 1.3530
09-Sep-2020 10:59:58.454, 0.5902, 0.0000,-0.8223, 0.3036,-2.2626,-0.6112, 0.2438, 0.2586, 1.3435
09-Sep-2020 10:59:58.465, 0.4260, 0.0819,-0.8522, 0.2434,-1.1892,-0.1949, 0.2236, 0.2602, 1.3368
09-Sep-2020 10:59:58.475, 0.0508,-0.0437,-1.1302, 0.2054, 0.9937, 0.4698, 0.2133, 0.2623, 1.3346
09-Sep-2020 10:59:58.484,-0.1418,-0.3096,-1.0068,-0.1801, 1.8841, 0.8204, 0.2210, 0.2650, 1.3388
09-Sep-2020 10:59:58.494,-0.1832,-0.3300,-0.7580,-0.5949, 1.9809, 0.5885, 0.2371, 0.2651, 1.3471
09-Sep-2020 10:59:58.504,-0.0634,-0.2411,-0.7768,-0.7966, 1.7805, 0.2434, 0.2548, 0.2609, 1.3545
09-Sep-2020 10:59:58.514, 0.1862,-0.1920,-0.7959,-0.7521, 1.5355, 0.2087, 0.2713, 0.2542, 1.3593
09-Sep-2020 10:59:58.525, 0.4420,-0.1951,-0.8309,-0.5372, 1.2070, 0.5062, 0.2854, 0.2477, 1.3637
09-Sep-2020 10:59:58.534, 0.6563,-0.1810,-0.8747,-0.1790, 0.7294, 1.0049, 0.2957, 0.2443, 1.3704
09-Sep-2020 10:59:58.544, 0.7732,-0.0638,-0.8169, 0.1951, 0.2132, 1.4314, 0.3004, 0.2456, 1.3808
09-Sep-2020 10:59:58.555, 0.7171,-0.2070,-0.7449, 0.4539,-0.3349, 1.8458, 0.2990, 0.2516, 1.3944
09-Sep-2020 10:59:58.564, 0.2917,-0.4257,-0.5913, 0.6756,-0.5100, 1.8797, 0.2917, 0.2613, 1.4110
09-Sep-2020 10:59:58.574,-0.1391,-0.5650,-0.5623, 0.8591,-0.3926, 1.3724, 0.2825, 0.2729, 1.4274
09-Sep-2020 10:59:58.584,-0.2551,-0.5994,-0.4513, 1.0100, 0.5298, 0.4969, 0.2761, 0.2849, 1.4384
09-Sep-2020 10:59:58.594,-0.0471,-0.5238,-0.4136, 1.0721, 1.5039,-0.3639, 0.2808, 0.2959, 1.4405
09-Sep-2020 10:59:58.604, 0.1695,-0.4465,-0.4692, 1.0605, 1.8288,-0.9236, 0.2973, 0.3052, 1.4340
09-Sep-2020 10:59:58.614, 0.3084,-0.3853,-0.6696, 0.9426, 1.4471,-1.2569, 0.3189, 0.3125, 1.4217
09-Sep-2020 10:59:58.624, 0.3834,-0.3551,-0.7511, 0.5302, 0.9805,-1.5404, 0.3377, 0.3171, 1.4062
09-Sep-2020 10:59:58.634, 0.4896,-0.3736,-0.5872, 0.0708, 1.1168,-1.6210, 0.3527, 0.3169, 1.3894
09-Sep-2020 10:59:58.644, 0.4460,-0.2708,-0.5981,-0.3967, 1.1370,-1.7336, 0.3687, 0.3119, 1.3733
09-Sep-2020 10:59:58.654, 0.3667,-0.1565,-0.5591,-0.7324, 1.2668,-2.0353, 0.3848, 0.3020, 1.3579
09-Sep-2020 10:59:58.664, 0.3017,-0.0538,-0.6054,-0.8912, 1.3551,-2.5323, 0.4022, 0.2876, 1.3411
09-Sep-2020 10:59:58.674, 0.2518, 0.0783,-0.6416,-0.8516, 1.5387,-3.2030, 0.4214, 0.2695, 1.3207
09-Sep-2020 10:59:58.684, 0.2356, 0.1520,-0.6524,-0.6697, 1.7729,-3.8798, 0.4434, 0.2486, 1.2944
09-Sep-2020 10:59:58.693, 0.2071, 0.2249,-0.6267,-0.4330, 1.9920,-4.5060, 0.4687, 0.2257, 1.2618
09-Sep-2020 10:59:58.703, 0.2144, 0.2503,-0.5815,-0.1996, 2.1605,-5.0192, 0.4967, 0.2012, 1.2233
09-Sep-2020 10:59:58.713, 0.2632, 0.2253,-0.5577,-0.0165, 2.2421,-5.3449, 0.5262, 0.1751, 1.1802
09-Sep-2020 10:59:58.724, 0.3796, 0.1480,-0.6119, 0.1476, 2.1603,-5.3513, 0.5557, 0.1477, 1.1343
09-Sep-2020 10:59:58.733, 0.5128, 0.0676,-0.6468, 0.2892, 2.0922,-4.9652, 0.5834, 0.1204, 1.0885
09-Sep-2020 10:59:58.743, 0.5706, 0.0535,-0.5968, 0.3974, 2.2238,-4.2708, 0.6089, 0.0952, 1.0460
09-Sep-2020 10:59:58.753, 0.5816, 0.0974,-0.5319, 0.4664, 2.5168,-3.3790, 0.6342, 0.0738, 1.0091
09-Sep-2020 10:59:58.763, 0.5343, 0.2264,-0.4720, 0.4986, 2.8959,-2.5472, 0.6613, 0.0573, 0.9795
09-Sep-2020 10:59:58.773, 0.4663, 0.3707,-0.4569, 0.5313, 3.2306,-1.9972, 0.6912, 0.0453, 0.9564
09-Sep-2020 10:59:58.784, 0.4108, 0.4601,-0.4741, 0.5983, 3.5332,-1.8071, 0.7241, 0.0364, 0.9377
09-Sep-2020 10:59:58.793, 0.4021, 0.4728,-0.5368, 0.7132, 3.8329,-1.9013, 0.7598, 0.0286, 0.9203
09-Sep-2020 10:59:58.803, 0.3862, 0.4874,-0.9063, 1.1935, 3.7261,-2.2696, 0.7980, 0.0204, 0.9015
09-Sep-2020 10:59:58.813, 0.5300, 0.3855,-0.7865, 1.4341, 3.8060,-2.5875, 0.8359, 0.0120, 0.8777
09-Sep-2020 10:59:58.823, 0.6663, 0.3398,-0.7874, 1.4854, 3.5379,-2.8380, 0.8737, 0.0020, 0.8501
09-Sep-2020 10:59:58.833, 0.6947, 0.3689,-0.8523, 1.4972, 3.1519,-3.1004, 0.9087,-0.0106, 0.8209
09-Sep-2020 10:59:58.843, 0.7229, 0.3897,-0.8806, 1.4383, 2.7323,-3.3574, 0.9395,-0.0262, 0.7905
09-Sep-2020 10:59:58.853, 0.7726, 0.4203,-0.9106, 1.3417, 2.3750,-3.5970, 0.9656,-0.0451, 0.7595
09-Sep-2020 10:59:58.863, 0.8262, 0.4463,-0.9074, 1.2513, 2.0887,-3.8034, 0.9875,-0.0672, 0.7283
09-Sep-2020 10:59:58.873, 0.8847, 0.4599,-0.8761, 1.1883, 1.8976,-3.9737, 1.0059,-0.0921, 0.6972
09-Sep-2020 10:59:58.883, 0.9557, 0.4485,-0.8501, 1.1948, 1.7872,-4.0750, 1.0215,-0.1193, 0.6661
09-Sep-2020 10:59:58.893, 1.0200, 0.4161,-0.8357, 1.3154, 1.7958,-4.1058, 1.0352,-0.1477, 0.6347
09-Sep-2020 10:59:58.902, 1.0462, 0.3746,-0.8911, 1.5431, 1.7262,-4.0810, 1.0478,-0.1762, 0.6023
09-Sep-2020 10:59:58.912, 1.0679, 0.3245,-0.9723, 1.7721, 1.4100,-3.9936, 1.0583,-0.2038, 0.5682
09-Sep-2020 10:59:58.922, 1.1028, 0.2924,-0.9472, 1.9062, 1.0697,-3.8557, 1.0647,-0.2298, 0.5327
09-Sep-2020 10:59:58.932, 1.1562, 0.2739,-0.8740, 1.9114, 0.8123,-3.6864, 1.0667,-0.2541, 0.4966
09-Sep-2020 10:59:58.942, 1.2078, 0.2965,-0.7998, 1.7885, 0.6646,-3.5265, 1.0655,-0.2770, 0.4610
09-Sep-2020 10:59:58.952, 1.2313, 0.3490,-0.7787, 1.5636, 0.5181,-3.4125, 1.0625,-0.2991, 0.4271
09-Sep-2020 10:59:58.962, 1.2454, 0.4034,-0.7961, 1.2952, 0.3656,-3.3291, 1.0580,-0.3210, 0.3954
09-Sep-2020 10:59:58.972, 1.2913, 0.4186,-0.8216, 1.0397, 0.1922,-3.2284, 1.0521,-0.3434, 0.3663
09-Sep-2020 10:59:58.982, 1.3570, 0.3809,-0.8521, 0.8253,-0.0233,-3.0505, 1.0447,-0.3660, 0.3397
09-Sep-2020 10:59:58.992, 1.3925, 0.3241,-0.8835, 0.6837,-0.3067,-2.7997, 1.0355,-0.3878, 0.3155
09-Sep-2020 10:59:59.002, 1.4149, 0.2826,-0.9250, 0.6389,-0.5919,-2.5027, 1.0240,-0.4081, 0.2936
09-Sep-2020 10:59:59.012, 1.4431, 0.2691,-0.9616, 0.6863,-0.7638,-2.1759, 1.0099,-0.4258, 0.2733
09-Sep-2020 10:59:59.022, 1.4628, 0.2762,-0.9714, 0.8135,-0.7958,-1.8702, 0.9943,-0.4402, 0.2541
09-Sep-2020 10:59:59.032, 1.4920, 0.2686,-0.9729, 0.9813,-0.7961,-1.5861, 0.9783,-0.4512, 0.2352
09-Sep-2020 10:59:59.042, 1.5053, 0.2536,-0.9687, 1.1428,-0.8615,-1.3205, 0.9620,-0.4586, 0.2163
09-Sep-2020 10:59:59.052, 1.4977, 0.2549,-0.9515, 1.2395,-1.0212,-1.0726, 0.9450,-0.4627, 0.1975
09-Sep-2020 10:59:59.062, 1.4784, 0.2840,-0.9339, 1.2547,-1.2847,-0.8625, 0.9267,-0.4640, 0.1794
09-Sep-2020 10:59:59.072, 1.4437, 0.3340,-0.9059, 1.1760,-1.6195,-0.6772, 0.9063,-0.4631, 0.1625
09-Sep-2020 10:59:59.082, 1.3860, 0.3669,-0.8774, 1.0449,-1.9616,-0.4883, 0.8836,-0.4610, 0.1477
09-Sep-2020 10:59:59.092, 1.3011, 0.3615,-0.8740, 0.9272,-2.3117,-0.3031, 0.8586,-0.4579, 0.1353
09-Sep-2020 10:59:59.102, 1.2165, 0.3387,-0.8688, 0.8523,-2.5976,-0.1236, 0.8312,-0.4540, 0.1254
09-Sep-2020 10:59:59.111, 1.1332, 0.3133,-0.8408, 0.8238,-2.7396, 0.0496, 0.8020,-0.4490, 0.1176
09-Sep-2020 10:59:59.121, 1.0473, 0.2970,-0.8094, 0.8318,-2.7693, 0.2068, 0.7722,-0.4428, 0.1116
09-Sep-2020 10:59:59.131, 0.9437, 0.3034,-0.7706, 0.8612,-2.7020, 0.3365, 0.7428,-0.4353, 0.1070
09-Sep-2020 10:59:59.142, 0.8555, 0.3140,-0.7303, 0.9031,-2.5626, 0.4267, 0.7145,-0.4266, 0.1035
09-Sep-2020 10:59:59.151, 0.7748, 0.3253,-0.7204, 0.9514,-2.3926, 0.4660, 0.6878,-0.4169, 0.1007
09-Sep-2020 10:59:59.161, 0.6963, 0.3241,-0.6883, 1.0103,-2.1196, 0.4578, 0.6631,-0.4066, 0.0982
09-Sep-2020 10:59:59.171, 0.6371, 0.3383,-0.6492, 1.0854,-1.7582, 0.3923, 0.6410,-0.3958, 0.0955
09-Sep-2020 10:59:59.181, 0.5949, 0.3920,-0.6608, 1.1639,-1.5051, 0.2597, 0.6221,-0.3847, 0.0920
09-Sep-2020 10:59:59.191, 0.5728, 0.4178,-0.6627, 1.2421,-1.3231, 0.1030, 0.6053,-0.3737, 0.0871
09-Sep-2020 10:59:59.201, 0.5522, 0.3922,-0.6537, 1.3417,-1.1253,-0.0110, 0.5898,-0.3628, 0.0806
09-Sep-2020 10:59:59.211, 0.5632, 0.3543,-0.6736, 1.4655,-0.9702,-0.0547, 0.5758,-0.3516, 0.0728
09-Sep-2020 10:59:59.221, 0.5643, 0.3571,-0.6863, 1.5838,-0.8607,-0.0835, 0.5632,-0.3395, 0.0640
09-Sep-2020 10:59:59.231, 0.5886, 0.3703,-0.7134, 1.6977,-0.8312,-0.1117, 0.5514,-0.3265, 0.0545
09-Sep-2020 10:59:59.241, 0.5727, 0.3779,-0.7446, 1.8013,-0.8093,-0.1760, 0.5399,-0.3126, 0.0443
09-Sep-2020 10:59:59.251, 0.5446, 0.3739,-0.7052, 1.8233,-0.6619,-0.2709, 0.5286,-0.2980, 0.0332
09-Sep-2020 10:59:59.261, 0.5515, 0.3301,-0.6980, 1.7906,-0.5310,-0.3645, 0.5186,-0.2836, 0.0213
09-Sep-2020 10:59:59.271, 0.5188, 0.2932,-0.7684, 1.7714,-0.5614,-0.4954, 0.5098,-0.2698, 0.0090
09-Sep-2020 10:59:59.281, 0.4697, 0.3072,-0.8295, 1.7583,-0.7258,-0.7100, 0.5007,-0.2567,-0.0043
09-Sep-2020 10:59:59.291, 0.3975, 0.3537,-0.7888, 1.6971,-0.7460,-1.0478, 0.4898,-0.2447,-0.0194
09-Sep-2020 10:59:59.301, 0.3634, 0.3704,-0.7547, 1.5779,-0.7014,-1.3963, 0.4783,-0.2346,-0.0369
09-Sep-2020 10:59:59.311, 0.3582, 0.3460,-0.8109, 1.5340,-0.6956,-1.6990, 0.4667,-0.2268,-0.0569
09-Sep-2020 10:59:59.321, 0.4227, 0.2517,-0.8562, 1.6164,-0.5734,-1.8453, 0.4549,-0.2205,-0.0793
09-Sep-2020 10:59:59.331, 0.4864, 0.1735,-0.9032, 1.8282,-0.3560,-1.8690, 0.4441,-0.2138,-0.1033
09-Sep-2020 10:59:59.340, 0.4760, 0.1458,-0.9036, 2.0926,-0.1020,-1.8910, 0.4353,-0.2051,-0.1284
09-Sep-2020 10:59:59.351, 0.4797, 0.0389,-0.7813, 2.2545, 0.2825,-1.8407, 0.4292,-0.1940,-0.1546
09-Sep-2020 10:59:59.360, 0.5338,-0.0455,-0.7567, 2.3669, 0.5703,-1.6309, 0.4270,-0.1812,-0.1808
09-Sep-2020 10:59:59.370, 0.4663,-0.0298,-0.7568, 2.3968, 0.7377,-1.4453, 0.4284,-0.1665,-0.2057
09-Sep-2020 10:59:59.382, 0.4397,-0.0342,-0.6537, 2.1918, 0.8399,-1.2605, 0.4320,-0.1509,-0.2289
09-Sep-2020 10:59:59.390, 0.3888, 0.0067,-0.5002, 1.7762, 1.0234,-1.2056, 0.4374,-0.1364,-0.2496
09-Sep-2020 10:59:59.400, 0.2916, 0.0076,-0.3469, 1.1694, 1.1449,-1.2993, 0.4451,-0.1257,-0.2682
09-Sep-2020 10:59:59.410, 0.2515,-0.0324,-0.4196, 0.6370, 1.0447,-1.4487, 0.4543,-0.1207,-0.2850
09-Sep-2020 10:59:59.420, 0.2882,-0.0237,-0.5435, 0.2746, 1.0355,-1.5926, 0.4629,-0.1213,-0.3008
09-Sep-2020 10:59:59.430, 0.3500, 0.0399,-0.7327, 0.1041, 1.1110,-1.7136, 0.4713,-0.1258,-0.3163
09-Sep-2020 10:59:59.440, 0.4147, 0.0333,-0.7393,-0.0159, 1.5182,-1.7395, 0.4806,-0.1326,-0.3320
09-Sep-2020 10:59:59.450, 0.4311, 0.0364,-0.7399,-0.0799, 2.0404,-1.7585, 0.4937,-0.1407,-0.3473
09-Sep-2020 10:59:59.460, 0.4814, 0.0620,-0.8218,-0.0273, 2.4496,-1.7300, 0.5117,-0.1497,-0.3624
09-Sep-2020 10:59:59.470, 0.6012, 0.0804,-0.9344, 0.1449, 2.6734,-1.5980, 0.5336,-0.1583,-0.3773
09-Sep-2020 10:59:59.480, 0.6483, 0.1212,-0.9912, 0.3477, 2.7448,-1.4724, 0.5578,-0.1653,-0.3918
09-Sep-2020 10:59:59.490, 0.6679, 0.1533,-1.0132, 0.5255, 2.6185,-1.3848, 0.5826,-0.1702,-0.4062
09-Sep-2020 10:59:59.500, 0.6633, 0.1586,-0.9805, 0.6098, 2.3170,-1.3081, 0.6060,-0.1736,-0.4207
09-Sep-2020 10:59:59.510, 0.5975, 0.1650,-0.8806, 0.5153, 1.9998,-1.2632, 0.6266,-0.1762,-0.4349
09-Sep-2020 10:59:59.519, 0.5344, 0.1716,-0.8754, 0.3586, 1.6285,-1.2538, 0.6441,-0.1795,-0.4483
09-Sep-2020 10:59:59.529, 0.5062, 0.1519,-0.7537, 0.0995, 1.4899,-1.2504, 0.6583,-0.1842,-0.4605
09-Sep-2020 10:59:59.539, 0.4969, 0.1274,-0.6057,-0.2496, 1.5835,-1.2203, 0.6713,-0.1911,-0.4710
09-Sep-2020 10:59:59.549, 0.5203, 0.0851,-0.6155,-0.5242, 1.7566,-1.0810, 0.6855,-0.2005,-0.4790
09-Sep-2020 10:59:59.560, 0.5636, 0.0486,-0.7291,-0.5598, 2.0096,-0.8309, 0.7020,-0.2111,-0.4840
09-Sep-2020 10:59:59.570, 0.5809, 0.0802,-0.8175,-0.3891, 2.3622,-0.5669, 0.7215,-0.2206,-0.4868
09-Sep-2020 10:59:59.579, 0.5460, 0.2008,-0.8480,-0.1793, 2.6003,-0.4579, 0.7445,-0.2272,-0.4885
09-Sep-2020 10:59:59.589, 0.5005, 0.3262,-0.7951,-0.1013, 2.5488,-0.5538, 0.7697,-0.2317,-0.4907
09-Sep-2020 10:59:59.599, 0.4986, 0.3571,-0.6643,-0.2026, 2.3061,-0.7530, 0.7942,-0.2363,-0.4939
09-Sep-2020 10:59:59.610, 0.5509, 0.3067,-0.5387,-0.4282, 2.0427,-0.8731, 0.8163,-0.2431,-0.4976
09-Sep-2020 10:59:59.619, 0.6522, 0.2141,-0.5135,-0.6052, 1.8466,-0.8196, 0.8359,-0.2522,-0.5004
09-Sep-2020 10:59:59.629, 0.7085, 0.1445,-0.5509,-0.6646, 1.7248,-0.6698, 0.8541,-0.2621,-0.5013
09-Sep-2020 10:59:59.639, 0.7552, 0.1096,-0.6077,-0.5997, 1.6081,-0.4633, 0.8715,-0.2713,-0.5006
09-Sep-2020 10:59:59.649, 0.7376, 0.1279,-0.5861,-0.5363, 1.4568,-0.3050, 0.8879,-0.2786,-0.4989
09-Sep-2020 10:59:59.659, 0.6685, 0.1923,-0.5519,-0.5417, 1.1564,-0.2617, 0.9029,-0.2843,-0.4965
09-Sep-2020 10:59:59.669, 0.5997, 0.2534,-0.5050,-0.6404, 0.7691,-0.2876, 0.9152,-0.2897,-0.4937
09-Sep-2020 10:59:59.679, 0.5414, 0.2716,-0.4546,-0.7846, 0.4263,-0.3090, 0.9239,-0.2957,-0.4902
09-Sep-2020 10:59:59.689, 0.4941, 0.2751,-0.4450,-0.8231, 0.2090,-0.3316, 0.9295,-0.3028,-0.4856
09-Sep-2020 10:59:59.699, 0.4636, 0.2962,-0.3685,-0.7316, 0.3476,-0.3994, 0.9333,-0.3102,-0.4809
09-Sep-2020 10:59:59.709, 0.5030, 0.2872,-0.3733,-0.5165, 0.6121,-0.4760, 0.9379,-0.3176,-0.4773
09-Sep-2020 10:59:59.719, 0.6380, 0.2272,-0.5055,-0.2274, 0.7444,-0.4894, 0.9444,-0.3243,-0.4758
09-Sep-2020 10:59:59.728, 0.7021, 0.1936,-0.6212,-0.0221, 0.6725,-0.5112, 0.9513,-0.3295,-0.4768
09-Sep-2020 10:59:59.738, 0.7119, 0.2502,-0.7254, 0.0815, 0.3189,-0.5398, 0.9569,-0.3337,-0.4797
09-Sep-2020 10:59:59.748, 0.7387, 0.2723,-0.8254, 0.1881,-0.2175,-0.5672, 0.9584,-0.3375,-0.4837
09-Sep-2020 10:59:59.758, 0.8485, 0.2295,-0.4606,-0.1915,-0.2611,-0.5135, 0.9551,-0.3412,-0.4884
09-Sep-2020 10:59:59.768, 0.9547, 0.2716,-0.5220,-0.5455,-0.5912,-0.4362, 0.9517,-0.3463,-0.4899
09-Sep-2020 10:59:59.778, 1.0079, 0.3500,-0.4411,-0.8024,-0.8639,-0.3377, 0.9466,-0.3529,-0.4879
09-Sep-2020 10:59:59.788, 0.9949, 0.4130,-0.2425,-0.9487,-0.8066,-0.2440, 0.9398,-0.3602,-0.4832
09-Sep-2020 10:59:59.798, 0.8664, 0.4543,-0.2765,-0.8484,-0.5616,-0.2686, 0.9342,-0.3676,-0.4767
09-Sep-2020 10:59:59.808, 0.7795, 0.4827,-0.4077,-0.6276,-0.3289,-0.3477, 0.9306,-0.3747,-0.4712
09-Sep-2020 10:59:59.818, 0.6993, 0.5116,-0.4801,-0.4987,-0.1898,-0.4413, 0.9284,-0.3812,-0.4680
09-Sep-2020 10:59:59.828, 0.6117, 0.5388,-0.5572,-0.5241,-0.2011,-0.5744, 0.9270,-0.3877,-0.4665
09-Sep-2020 10:59:59.838, 0.5742, 0.5278,-0.6202,-0.6808,-0.3214,-0.7458, 0.9253,-0.3954,-0.4656
09-Sep-2020 10:59:59.848, 0.5588, 0.5204,-0.6904,-0.9403,-0.6263,-0.8854, 0.9224,-0.4053,-0.4645
09-Sep-2020 10:59:59.858, 0.5238, 0.5145,-0.7158,-1.1393,-0.7023,-0.8877, 0.9172,-0.4178,-0.4621
09-Sep-2020 10:59:59.868, 0.3592, 0.4807,-0.7216,-1.2146,-0.6073,-0.8367, 0.9120,-0.4316,-0.4582
09-Sep-2020 10:59:59.878, 0.3083, 0.3382,-0.5017,-1.2655,-0.3120,-0.8039, 0.9081,-0.4455,-0.4533
09-Sep-2020 10:59:59.888, 0.2993, 0.2570,-0.1933,-1.3468, 0.3313,-0.8515, 0.9077,-0.4595,-0.4478
09-Sep-2020 10:59:59.898, 0.1380, 0.3664,-0.0893,-1.4305, 1.0698,-1.1550, 0.9137,-0.4745,-0.4418
09-Sep-2020 10:59:59.908, 0.0541, 0.4863,-0.3193,-1.3062, 1.5384,-1.7236, 0.9263,-0.4923,-0.4371
09-Sep-2020 10:59:59.918, 0.3157, 0.6163,-0.3961,-1.1144, 1.8344,-2.1910, 0.9417,-0.5136,-0.4368
09-Sep-2020 10:59:59.928, 0.5180, 0.6542,-0.4038,-0.8810, 2.1305,-2.6030, 0.9578,-0.5377,-0.4411
09-Sep-2020 10:59:59.938, 0.7003, 0.5463,-0.4616,-0.7874, 2.1349,-2.9473, 0.9743,-0.5639,-0.4497
09-Sep-2020 10:59:59.948, 0.9109, 0.4220,-0.5557,-0.8976, 1.6035,-3.0547, 0.9889,-0.5925,-0.4612
09-Sep-2020 10:59:59.958, 1.0641, 0.3371,-0.6489,-1.1154, 0.7689,-2.8206, 0.9984,-0.6226,-0.4720
09-Sep-2020 10:59:59.968, 1.1407, 0.3049,-0.6231,-1.3745, 0.1442,-2.3986, 1.0020,-0.6521,-0.4791
09-Sep-2020 10:59:59.978, 1.1629, 0.3589,-0.5372,-1.6396,-0.0117,-2.0139, 1.0027,-0.6795,-0.4808
09-Sep-2020 10:59:59.987, 1.0949, 0.4835,-0.4827,-1.8877, 0.1647,-1.7858, 1.0053,-0.7052,-0.4770
09-Sep-2020 10:59:59.997, 0.9800, 0.6236,-0.5380,-2.1081, 0.2661,-1.6849, 1.0124,-0.7302,-0.4685
09-Sep-2020 11:00:00.007, 0.9316, 0.7487,-0.8601,-1.9098, 0.0915,-1.6837, 1.0229,-0.7553,-0.4566
09-Sep-2020 11:00:00.017, 0.8610, 0.7834,-0.8164,-1.5523,-0.3894,-1.8153, 1.0309,-0.7795,-0.4461
09-Sep-2020 11:00:00.027, 0.8346, 0.7148,-0.5562,-1.0994,-0.5680,-1.9743, 1.0311,-0.8028,-0.4406
09-Sep-2020 11:00:00.037, 0.7680, 0.6119,-0.2625,-0.9129,-0.7105,-2.0528, 1.0248,-0.8252,-0.4415
09-Sep-2020 11:00:00.047, 0.6789, 0.5925,-0.0817,-1.0058,-0.8417,-1.9449, 1.0147,-0.8473,-0.4456
09-Sep-2020 11:00:00.057, 0.6898, 0.6146, 0.1261,-1.3921,-0.7036,-1.5924, 1.0047,-0.8689,-0.4480
09-Sep-2020 11:00:00.067, 0.7225, 0.6374, 0.1118,-1.7668,-0.2971,-1.0246, 1.0018,-0.8895,-0.4428
09-Sep-2020 11:00:00.077, 0.6379, 0.6345,-0.1609,-1.7375, 0.1719,-0.5173, 1.0104,-0.9074,-0.4281
09-Sep-2020 11:00:00.087, 0.4729, 0.7165,-0.2966,-1.4419, 0.4768,-0.4040, 1.0272,-0.9209,-0.4089
09-Sep-2020 11:00:00.097, 0.4764, 0.8878,-0.3023,-1.1636, 0.6531,-0.4307, 1.0456,-0.9316,-0.3918
09-Sep-2020 11:00:00.107, 0.4599, 0.9388,-0.3428,-0.9617, 0.7933,-0.5346, 1.0629,-0.9411,-0.3784
09-Sep-2020 11:00:00.117, 0.4345, 0.9436,-0.3745,-0.8371, 1.0102,-0.6816, 1.0789,-0.9503,-0.3683
09-Sep-2020 11:00:00.127, 0.4566, 0.9746,-0.3873,-0.7487, 1.2110,-0.8419, 1.0949,-0.9601,-0.3610
09-Sep-2020 11:00:00.137, 0.4712, 0.9679,-0.3446,-0.7012, 1.4332,-1.0790, 1.1112,-0.9709,-0.3559
09-Sep-2020 11:00:00.148, 0.5078, 0.9125,-0.2326,-0.7861, 1.6864,-1.4015, 1.1279,-0.9836,-0.3530
09-Sep-2020 11:00:00.157, 0.5438, 0.8872,-0.1383,-1.0444, 1.8171,-1.7528, 1.1466,-0.9995,-0.3506
09-Sep-2020 11:00:00.167, 0.5578, 0.8921,-0.0835,-1.3647, 1.7976,-2.1030, 1.1686,-1.0196,-0.3458
09-Sep-2020 11:00:00.176, 0.6128, 0.8804,-0.0629,-1.6161, 1.8068,-2.3453, 1.1942,-1.0440,-0.3368
09-Sep-2020 11:00:00.187, 0.6612, 0.8400,-0.0462,-1.8250, 1.7217,-2.4240, 1.2242,-1.0713,-0.3230
09-Sep-2020 11:00:00.196, 0.6293, 0.7933,-0.0735,-1.9568, 1.2963,-2.4236, 1.2588,-1.0999,-0.3029
09-Sep-2020 11:00:00.206, 0.5878, 0.7947,-0.1045,-1.8955, 0.9347,-2.3321, 1.2953,-1.1284,-0.2768
09-Sep-2020 11:00:00.216, 0.5359, 0.8519,-0.0786,-1.7252, 0.6631,-2.1762, 1.3314,-1.1555,-0.2473
09-Sep-2020 11:00:00.226, 0.4342, 0.9207,-0.0080,-1.5343, 0.3654,-1.9928, 1.3661,-1.1803,-0.2168
09-Sep-2020 11:00:00.237, 0.2871, 0.9423,-0.0282,-1.2172, 0.1419,-1.8715, 1.3977,-1.2026,-0.1866
09-Sep-2020 11:00:00.246, 0.1995, 0.9447,-0.0880,-0.7051, 0.3704,-1.7701, 1.4230,-1.2229,-0.1615
09-Sep-2020 11:00:00.256, 0.1870, 0.9265,-0.0690,-0.2600, 0.7019,-1.6342, 1.4396,-1.2412,-0.1479
09-Sep-2020 11:00:00.266, 0.2101, 0.8847,-0.0528,-0.0241, 0.7861,-1.4879, 1.4482,-1.2576,-0.1460
09-Sep-2020 11:00:00.276, 0.2873, 0.8577,-0.0537, 0.0308, 0.6439,-1.2986, 1.4512,-1.2722,-0.1508
09-Sep-2020 11:00:00.286, 0.3741, 0.8722,-0.1000, 0.0444, 0.3392,-1.0736, 1.4513,-1.2849,-0.1573
09-Sep-2020 11:00:00.296, 0.4291, 0.8773,-0.1303, 0.0761,-0.1118,-0.8434, 1.4484,-1.2954,-0.1637
09-Sep-2020 11:00:00.306, 0.4529, 0.8481,-0.0563, 0.0504,-0.5744,-0.6476, 1.4409,-1.3036,-0.1704
09-Sep-2020 11:00:00.316, 0.4501, 0.8196, 0.0439,-0.0634,-0.8878,-0.4975, 1.4303,-1.3099,-0.1755
09-Sep-2020 11:00:00.326, 0.4144, 0.7722, 0.0474,-0.1911,-1.0278,-0.3987, 1.4212,-1.3148,-0.1759
09-Sep-2020 11:00:00.336, 0.3222, 0.6977, 0.0662,-0.3193,-0.9728,-0.3701, 1.4159,-1.3190,-0.1709
09-Sep-2020 11:00:00.346, 0.1982, 0.6034, 0.0699,-0.4412,-0.8771,-0.4871, 1.4162,-1.3231,-0.1606
09-Sep-2020 11:00:00.356, 0.0880, 0.4561, 0.0358,-0.5127,-0.7940,-0.6766, 1.4216,-1.3285,-0.1460
09-Sep-2020 11:00:00.366, 0.0507, 0.3244, 0.0543,-0.5961,-0.7006,-0.8432, 1.4305,-1.3358,-0.1288
09-Sep-2020 11:00:00.375, 0.0360, 0.2912,-0.0111,-0.6472,-0.7498,-1.0218, 1.4435,-1.3449,-0.1081
09-Sep-2020 11:00:00.386, 0.0204, 0.2825,-0.0567,-0.6392,-0.8378,-1.2227, 1.4589,-1.3557,-0.0847
09-Sep-2020 11:00:00.395, 0.0242, 0.2633,-0.0435,-0.5861,-0.8860,-1.4367, 1.4741,-1.3684,-0.0606
09-Sep-2020 11:00:00.405, 0.0265, 0.2338,-0.0173,-0.5237,-0.8357,-1.6247, 1.4880,-1.3831,-0.0375
09-Sep-2020 11:00:00.415, 0.0050, 0.1932, 0.0514,-0.4923,-0.5486,-1.7658, 1.5018,-1.3995,-0.0152
09-Sep-2020 11:00:00.425,-0.0184, 0.1625, 0.0380,-0.4222,-0.2426,-1.8968, 1.5194,-1.4173, 0.0082
09-Sep-2020 11:00:00.435,-0.0381, 0.1473, 0.0199,-0.3133, 0.1110,-1.9930, 1.5402,-1.4362, 0.0316
09-Sep-2020 11:00:00.445,-0.0448, 0.1246, 0.0691,-0.2972, 0.5280,-2.0077, 1.5633,-1.4560, 0.0537
09-Sep-2020 11:00:00.455,-0.6579, 1.1760, 0.7314,-1.0671, 1.7979,-3.2073, 1.6073,-1.4764, 0.0919
09-Sep-2020 11:00:00.465, 0.1463, 0.3743, 0.6481,-2.4640, 0.4956,-2.7429, 1.8066,-1.5037, 0.2770
09-Sep-2020 11:00:00.475,-0.0232, 0.8516, 1.7770,-5.0626, 1.9357,-2.6594, 2.4170,-1.5139, 0.8803
09-Sep-2020 11:00:00.485,-0.2943, 0.9449, 0.3463,-5.9818, 1.5472,-3.1477, 3.0373,-1.4777, 1.4847
09-Sep-2020 11:00:00.495, 0.1906, 0.9270,-1.0255,-4.7759, 0.5761,-3.0112,-2.9913,-1.4184, 1.7259
09-Sep-2020 11:00:00.505, 0.2993, 1.2522,-0.6171,-2.1912,-0.4417,-2.3392,-2.8767,-1.3673, 1.8364
09-Sep-2020 11:00:00.515, 0.1718, 3.6318, 0.0781, 0.4517, 1.9579,-1.2361,-2.8074,-1.3400, 1.9087
09-Sep-2020 11:00:00.525, 0.5956, 5.3315,-0.5796, 1.2183,-2.4324, 1.4954,-2.7597,-1.3382, 1.9498
09-Sep-2020 11:00:00.536,-0.6995, 4.2849,-0.2593, 1.7061,-4.0576, 1.7559,-2.8208,-1.3534, 1.9111
09-Sep-2020 11:00:00.545,-0.5602, 2.8109, 0.0066, 2.0785,-3.9923, 1.3890,-2.9190,-1.3744, 1.8510
09-Sep-2020 11:00:00.555,-0.0719, 1.7772, 0.0522, 2.2162,-3.5830, 1.2409,-3.0137,-1.3972, 1.7949
09-Sep-2020 11:00:00.564,-0.0383, 1.0961, 0.1482, 2.1888,-3.0232, 1.1020,-3.1146,-1.4201, 1.7287
09-Sep-2020 11:00:00.575,-0.0326, 0.6957, 0.4254, 1.8157,-2.1298, 0.9623, 3.0557,-1.4414, 1.6449
09-Sep-2020 11:00:00.585,-0.0052, 0.4510, 0.8126, 1.0055,-0.9290, 0.8844, 2.9343,-1.4577, 1.5440
09-Sep-2020 11:00:00.594, 0.0396, 0.3293, 1.0466,-0.1880, 0.6377, 0.8543, 2.8241,-1.4648, 1.4422
09-Sep-2020 11:00:00.604, 0.0787, 0.4256, 0.7239,-0.9937, 1.8663, 0.7920, 2.7609,-1.4604, 1.3726
09-Sep-2020 11:00:00.614, 0.1239, 0.6304, 0.3819,-1.3225, 2.2665, 0.6601, 2.7471,-1.4485, 1.3406
09-Sep-2020 11:00:00.625, 0.1335, 0.8559, 0.1811,-1.0891, 2.2758, 0.4312, 2.7596,-1.4342, 1.3308
09-Sep-2020 11:00:00.634, 0.1027, 1.0296, 0.0346,-0.6113, 1.9572, 0.0680, 2.7814,-1.4227, 1.3301
09-Sep-2020 11:00:00.644, 0.1076, 1.1577,-0.0825,-0.3204, 1.2817,-0.3427, 2.8098,-1.4167, 1.3394
09-Sep-2020 11:00:00.654, 0.1472, 1.1645,-0.1091,-0.2029, 0.5482,-0.6702, 2.8488,-1.4146, 1.3660
09-Sep-2020 11:00:00.665, 0.1819, 1.0738,-0.0659,-0.1030, 0.0828,-0.7106, 2.8970,-1.4144, 1.4091
09-Sep-2020 11:00:00.674, 0.1892, 1.0165,-0.0519, 0.0085,-0.1864,-0.5717, 2.9419,-1.4150, 1.4537
09-Sep-2020 11:00:00.684, 0.1693, 0.9581,-0.0461, 0.2621,-0.3455,-0.4240, 2.9750,-1.4162, 1.4890
09-Sep-2020 11:00:00.694, 0.1535, 0.9357,-0.0023, 0.4514,-0.4123,-0.3302, 2.9958,-1.4194, 1.5135
09-Sep-2020 11:00:00.704, 0.1432, 0.9180, 0.0778, 0.6190,-0.1692,-0.2222, 3.0088,-1.4243, 1.5306
09-Sep-2020 11:00:00.714, 0.1367, 0.9155, 0.1407, 0.6967, 0.1875,-0.1439, 3.0166,-1.4307, 1.5401
09-Sep-2020 11:00:00.724, 0.1030, 0.8729, 0.1736, 0.5271, 0.4430,-0.1566, 3.0226,-1.4376, 1.5444
09-Sep-2020 11:00:00.735, 0.0628, 0.8698, 0.1909, 0.2738, 0.6313,-0.2372, 3.0341,-1.4430, 1.5515
09-Sep-2020 11:00:00.744, 0.0305, 0.9112, 0.1711, 0.1197, 0.7954,-0.3641, 3.0565,-1.4460, 1.5678
09-Sep-2020 11:00:00.754, 0.0154, 0.9996, 0.1385, 0.1412, 0.9277,-0.4808, 3.0922,-1.4476, 1.5959
09-Sep-2020 11:00:00.764, 0.0245, 1.0705, 0.1246, 0.2963, 1.0100,-0.4886, 3.1387,-1.4492, 1.6334
09-Sep-2020 11:00:00.774, 0.0329, 1.1326, 0.1504, 0.4781, 1.1353,-0.4210,-3.0946,-1.4521, 1.6735
09-Sep-2020 11:00:00.784, 0.0485, 1.1714, 0.2085, 0.5568, 1.3225,-0.2919,-3.0457,-1.4565, 1.7114
09-Sep-2020 11:00:00.794, 0.0484, 1.1462, 0.2609, 0.4541, 1.3597,-0.1701,-3.0018,-1.4616, 1.7424
09-Sep-2020 11:00:00.803, 0.0036, 1.0926, 0.2781, 0.2508, 1.2934,-0.1245,-2.9664,-1.4658, 1.7645
09-Sep-2020 11:00:00.813,-0.0449, 1.0404, 0.2282, 0.0587, 1.0811,-0.1499,-2.9376,-1.4680, 1.7806
09-Sep-2020 11:00:00.823,-0.0672, 0.9921, 0.1422,-0.0295, 0.7568,-0.1733,-2.9122,-1.4684, 1.7954
09-Sep-2020 11:00:00.834,-0.0805, 0.9655, 0.0694,-0.0025, 0.4097,-0.1828,-2.8895,-1.4678, 1.8106
09-Sep-2020 11:00:00.843,-0.0836, 0.9549, 0.0295, 0.0681, 0.0942,-0.1694,-2.8692,-1.4674, 1.8270
09-Sep-2020 11:00:00.853,-0.0870, 0.9347, 0.0228, 0.1296,-0.1400,-0.1503,-2.8514,-1.4677, 1.8439
09-Sep-2020 11:00:00.864,-0.0746, 0.9370, 0.0367, 0.1619,-0.2664,-0.1190,-2.8358,-1.4685, 1.8609
09-Sep-2020 11:00:00.873,-0.0588, 0.9678, 0.0634, 0.1386,-0.3042,-0.0708,-2.8233,-1.4697, 1.8761
09-Sep-2020 11:00:00.883,-0.0612, 0.9880, 0.0848, 0.1190,-0.3132,-0.0168,-2.8160,-1.4709, 1.8864
09-Sep-2020 11:00:00.893,-0.0580, 1.0097, 0.1138, 0.0908,-0.3223, 0.0089,-2.8144,-1.4720, 1.8913
09-Sep-2020 11:00:00.903,-0.0458, 1.0045, 0.1341, 0.0811,-0.3003, 0.0045,-2.8160,-1.4729, 1.8929
09-Sep-2020 11:00:00.913,-0.0288, 1.0033, 0.1541, 0.0634,-0.2451, 0.0012,-2.8175,-1.4737, 1.8944
09-Sep-2020 11:00:00.923,-0.0228, 1.0078, 0.1499, 0.0556,-0.2153,-0.0079,-2.8186,-1.4744, 1.8957
09-Sep-2020 11:00:00.933,-0.0132, 1.0230, 0.1291, 0.0143,-0.2299,-0.0583,-2.8187,-1.4749, 1.8978
09-Sep-2020 11:00:00.943, 0.0092, 1.0102, 0.1162, 0.0052,-0.1955,-0.0878,-2.8156,-1.4749, 1.9032
09-Sep-2020 11:00:00.952, 0.0206, 0.9962, 0.1060,-0.0085,-0.1392,-0.0749,-2.8098,-1.4747, 1.9111
09-Sep-2020 11:00:00.963, 0.0251, 0.9973, 0.0786,-0.0270,-0.0770,-0.0792,-2.8045,-1.4745, 1.9192
09-Sep-2020 11:00:00.972, 0.0331, 0.9877, 0.0466,-0.0130, 0.0122,-0.0693,-2.7991,-1.4740, 1.9269
09-Sep-2020 11:00:00.982, 0.0269, 0.9805, 0.0249, 0.0380, 0.0813,-0.0514,-2.7932,-1.4738, 1.9340
09-Sep-2020 11:00:00.993, 0.0108, 0.9798, 0.0143, 0.1051, 0.0462,-0.0570,-2.7866,-1.4740, 1.9413
09-Sep-2020 11:00:01.003, 0.0071, 0.9829, 0.0212, 0.1429,-0.0494,-0.0799,-2.7775,-1.4748, 1.9514
09-Sep-2020 11:00:01.012, 0.0125, 0.9760, 0.0391, 0.1563,-0.1308,-0.0755,-2.7661,-1.4758, 1.9647
09-Sep-2020 11:00:01.022, 0.0061, 0.9549, 0.0511, 0.1827,-0.1639,-0.0539,-2.7551,-1.4770, 1.9783
09-Sep-2020 11:00:01.032,-0.0007, 0.9796, 0.0739, 0.1845,-0.1267,-0.0659,-2.7449,-1.4785, 1.9914
09-Sep-2020 11:00:01.043,-0.0068, 1.0050, 0.0855, 0.1398,-0.0283,-0.0874,-2.7334,-1.4799, 2.0055
09-Sep-2020 11:00:01.052,-0.0136, 1.0069, 0.0660, 0.1222, 0.0658,-0.0929,-2.7203,-1.4810, 2.0202
09-Sep-2020 11:00:01.062,-0.0385, 0.9980, 0.0472, 0.1164, 0.1040,-0.1383,-2.7056,-1.4818, 2.0355
09-Sep-2020 11:00:01.072,-0.0549, 0.9851, 0.0278, 0.1268, 0.0676,-0.1812,-2.6864,-1.4824, 2.0550
09-Sep-2020 11:00:01.082,-0.0723, 0.9881, 0.0101, 0.1314,-0.0244,-0.2042,-2.6623,-1.4830, 2.0798
09-Sep-2020 11:00:01.092,-0.1005, 0.9994,-0.0079, 0.1372,-0.1851,-0.2132,-2.6357,-1.4834, 2.1080
09-Sep-2020 11:00:01.102,-0.1274, 1.0034,-0.0069, 0.1369,-0.3958,-0.2322,-2.6095,-1.4837, 2.1375
09-Sep-2020 11:00:01.112,-0.1442, 0.9958, 0.0117, 0.1276,-0.5902,-0.2582,-2.5836,-1.4838, 2.1685
09-Sep-2020 11:00:01.122,-0.1414, 1.0015, 0.0316, 0.1074,-0.7396,-0.2686,-2.5580,-1.4836, 2.2013
09-Sep-2020 11:00:01.132,-0.1244, 1.0390, 0.0477, 0.0856,-0.8405,-0.2576,-2.5346,-1.4831, 2.2334
09-Sep-2020 11:00:01.142,-0.1048, 1.0613, 0.0672, 0.0510,-0.8906,-0.2397,-2.5141,-1.4824, 2.2634
09-Sep-2020 11:00:01.152,-0.0762, 1.0681, 0.0863,-0.0088,-0.8616,-0.1980,-2.4987,-1.4815, 2.2887
09-Sep-2020 11:00:01.162,-0.0582, 1.0528, 0.0875,-0.0650,-0.7608,-0.1552,-2.4909,-1.4803, 2.3061
09-Sep-2020 11:00:01.172,-0.0455, 1.0300, 0.0685,-0.0719,-0.6474,-0.1720,-2.4892,-1.4789, 2.3164
09-Sep-2020 11:00:01.181,-0.0166, 0.9822, 0.0547,-0.0350,-0.5442,-0.2592,-2.4853,-1.4774, 2.3276
09-Sep-2020 11:00:01.191, 0.0260, 0.9453, 0.0599, 0.0139,-0.4208,-0.2947,-2.4720,-1.4756, 2.3472
09-Sep-2020 11:00:01.202, 0.0416, 0.9440, 0.0578, 0.0261,-0.2626,-0.2519,-2.4525,-1.4739, 2.3717
09-Sep-2020 11:00:01.211, 0.0334, 0.9522, 0.0495, 0.0040,-0.0869,-0.2180,-2.4341,-1.4726, 2.3934
09-Sep-2020 11:00:01.221, 0.0303, 0.9636, 0.0386,-0.0210, 0.0684,-0.2085,-2.4185,-1.4712, 2.4107
09-Sep-2020 11:00:01.231, 0.0287, 0.9890, 0.0271,-0.0206, 0.1780,-0.1958,-2.4041,-1.4698, 2.4251
09-Sep-2020 11:00:01.241, 0.0250, 0.9993, 0.0227, 0.0030, 0.2425,-0.1807,-2.3898,-1.4684, 2.4383
09-Sep-2020 11:00:01.252, 0.0217, 1.0036, 0.0261, 0.0303, 0.2582,-0.1681,-2.3748,-1.4673, 2.4515
09-Sep-2020 11:00:01.261, 0.0185, 1.0186, 0.0314, 0.0393, 0.2424,-0.1468,-2.3591,-1.4664, 2.4653
09-Sep-2020 11:00:01.271, 0.0180, 1.0171, 0.0354, 0.0277, 0.2105,-0.1245,-2.3445,-1.4657, 2.4781
09-Sep-2020 11:00:01.281, 0.0169, 0.9929, 0.0326, 0.0505, 0.1624,-0.0938,-2.3326,-1.4651, 2.4886
09-Sep-2020 11:00:01.291, 0.0208, 0.9899, 0.0302, 0.1055, 0.1052,-0.0767,-2.3216,-1.4649, 2.4987
09-Sep-2020 11:00:01.302, 0.0293, 0.9970, 0.0351, 0.1411, 0.0633,-0.0513,-2.3087,-1.4651, 2.5111
09-Sep-2020 11:00:01.311, 0.0202, 1.0047, 0.0417, 0.1422, 0.0804,-0.0197,-2.2953,-1.4657, 2.5246
09-Sep-2020 11:00:01.321, 0.0002, 1.0013, 0.0444, 0.1022, 0.1301,-0.0057,-2.2834,-1.4666, 2.5363
09-Sep-2020 11:00:01.331,-0.0235, 0.9905, 0.0409, 0.0644, 0.1684,-0.0095,-2.2745,-1.4673, 2.5446
09-Sep-2020 11:00:01.341,-0.0417, 0.9755, 0.0371, 0.0432, 0.1964,-0.0289,-2.2675,-1.4677, 2.5506
09-Sep-2020 11:00:01.351,-0.0389, 0.9809, 0.0347, 0.0601, 0.2451,-0.0408,-2.2605,-1.4678, 2.5562
09-Sep-2020 11:00:01.361,-0.0396, 0.9901, 0.0359, 0.0890, 0.2752,-0.0335,-2.2517,-1.4682, 2.5632
09-Sep-2020 11:00:01.371,-0.0494, 0.9868, 0.0472, 0.0858, 0.3121,-0.0253,-2.2411,-1.4687, 2.5717
09-Sep-2020 11:00:01.383,-0.0550, 1.0005, 0.0477, 0.0757, 0.3178,-0.0389,-2.2303,-1.4692, 2.5801
09-Sep-2020 11:00:01.390,-0.0421, 1.0128, 0.0472, 0.0661, 0.3302,-0.0482,-2.2195,-1.4697, 2.5883
09-Sep-2020 11:00:01.400,-0.0387, 1.0163, 0.0402, 0.0675, 0.3285,-0.0531,-2.2090,-1.4699, 2.5961
09-Sep-2020 11:00:01.410,-0.0210, 1.0082, 0.0466, 0.0668, 0.3737,-0.0072,-2.1982,-1.4702, 2.6043
09-Sep-2020 11:00:01.420,-0.0304, 0.9920, 0.0566, 0.0146, 0.4676, 0.0131,-2.1894,-1.4706, 2.6098
09-Sep-2020 11:00:01.430,-0.0392, 0.9964, 0.0266,-0.0181, 0.5459,-0.0107,-2.1843,-1.4710, 2.6109
09-Sep-2020 11:00:01.440,-0.0242, 0.9906, 0.0022,-0.0178, 0.5601,-0.0175,-2.1798,-1.4709, 2.6106
09-Sep-2020 11:00:01.450,-0.0241, 0.9775,-0.0113, 0.0261, 0.5313, 0.0145,-2.1748,-1.4708, 2.6106
09-Sep-2020 11:00:01.461,-0.0291, 0.9831,-0.0043, 0.0704, 0.4931, 0.0475,-2.1684,-1.4711, 2.6124
09-Sep-2020 11:00:01.470,-0.0254, 1.0046, 0.0144, 0.0881, 0.5020, 0.0691,-2.1605,-1.4719, 2.6161
09-Sep-2020 11:00:01.480,-0.0347, 1.0055, 0.0235, 0.0583, 0.5329, 0.0642,-2.1522,-1.4730, 2.6201
09-Sep-2020 11:00:01.490,-0.0501, 1.0114, 0.0081, 0.0369, 0.5372, 0.0409,-2.1454,-1.4740, 2.6223
09-Sep-2020 11:00:01.500,-0.0468, 1.0101, 0.0032, 0.0433, 0.5020, 0.0382,-2.1391,-1.4746, 2.6240
09-Sep-2020 11:00:01.510,-0.0581, 0.9946, 0.0096, 0.0670, 0.4576, 0.0545,-2.1325,-1.4752, 2.6263
09-Sep-2020 11:00:01.520,-0.0743, 0.9932, 0.0093, 0.0949, 0.4020, 0.0719,-2.1252,-1.4761, 2.6298
09-Sep-2020 11:00:01.530,-0.0761, 1.0020, 0.0168, 0.0978, 0.3582, 0.0812,-2.1168,-1.4773, 2.6350
09-Sep-2020 11:00:01.540,-0.0640, 1.0045, 0.0241, 0.0784, 0.3616, 0.1009,-2.1091,-1.4785, 2.6400
09-Sep-2020 11:00:01.550,-0.0635, 0.9925, 0.0209, 0.0660, 0.3613, 0.1321,-2.1039,-1.4799, 2.6424
09-Sep-2020 11:00:01.560,-0.0695, 0.9944, 0.0175, 0.0545, 0.3500, 0.1341,-2.1014,-1.4814, 2.6422
09-Sep-2020 11:00:01.570,-0.0730, 0.9935, 0.0202, 0.0432, 0.3597, 0.1158,-2.1003,-1.4829, 2.6405
09-Sep-2020 11:00:01.579,-0.0708, 0.9868, 0.0295, 0.0298, 0.4147, 0.1093,-2.0993,-1.4842, 2.6387
09-Sep-2020 11:00:01.590,-0.0666, 0.9895, 0.0256, 0.0322, 0.4760, 0.1265,-2.0986,-1.4854, 2.6362
09-Sep-2020 11:00:01.600,-0.0719, 0.9945, 0.0182, 0.0411, 0.5232, 0.1319,-2.0981,-1.4867, 2.6327
09-Sep-2020 11:00:01.610,-0.0769, 0.9970, 0.0179, 0.0480, 0.5317, 0.1315,-2.0966,-1.4881, 2.6298
09-Sep-2020 11:00:01.620,-0.0855, 1.0064, 0.0181, 0.0377, 0.5214, 0.1114,-2.0944,-1.4896, 2.6276
09-Sep-2020 11:00:01.629,-0.0895, 1.0093, 0.0113, 0.0255, 0.4748, 0.1093,-2.0921,-1.4908, 2.6255
09-Sep-2020 11:00:01.639,-0.0973, 1.0074, 0.0031, 0.0126, 0.4067, 0.1087,-2.0914,-1.4920, 2.6224
09-Sep-2020 11:00:01.649,-0.1034, 1.0029,-0.0010, 0.0077, 0.3379, 0.1022,-2.0928,-1.4930, 2.6179
09-Sep-2020 11:00:01.660,-0.1157, 0.9946,-0.0004,-0.0010, 0.2864, 0.0928,-2.0952,-1.4940, 2.6130
09-Sep-2020 11:00:01.669,-0.1212, 0.9904,-0.0018,-0.0085, 0.2495, 0.0798,-2.0987,-1.4949, 2.6075
09-Sep-2020 11:00:01.679,-0.1231, 0.9881,-0.0023,-0.0126, 0.2233, 0.0712,-2.1026,-1.4956, 2.6020
09-Sep-2020 11:00:01.689,-0.1208, 0.9914,-0.0013,-0.0155, 0.1985, 0.0678,-2.1068,-1.4963, 2.5965
09-Sep-2020 11:00:01.699,-0.1143, 0.9952, 0.0060,-0.0137, 0.1824, 0.0712,-2.1114,-1.4968, 2.5909
09-Sep-2020 11:00:01.709,-0.1030, 0.9964, 0.0101,-0.0086, 0.1656, 0.0778,-2.1161,-1.4974, 2.5853
09-Sep-2020 11:00:01.719,-0.0897, 0.9943, 0.0151, 0.0027, 0.1419, 0.0808,-2.1209,-1.4981, 2.5797
09-Sep-2020 11:00:01.729,-0.0771, 0.9913, 0.0201, 0.0154, 0.1198, 0.0755,-2.1252,-1.4989, 2.5750
09-Sep-2020 11:00:01.739,-0.0606, 0.9978, 0.0272, 0.0168, 0.1064, 0.0777,-2.1280,-1.4997, 2.5719
09-Sep-2020 11:00:01.749,-0.0488, 0.9693, 0.0391,-0.0202, 0.1306, 0.0866,-2.1312,-1.5006, 2.5685
09-Sep-2020 11:00:01.759,-0.0422, 0.9676, 0.0330,-0.0483, 0.1878, 0.0750,-2.1387,-1.5013, 2.5605
09-Sep-2020 11:00:01.769,-0.0428, 1.0057, 0.0144,-0.0274, 0.1967, 0.0826,-2.1484,-1.5017, 2.5499
09-Sep-2020 11:00:01.779,-0.0401, 1.0278, 0.0187, 0.0142, 0.1839, 0.1030,-2.1563,-1.5024, 2.5408
09-Sep-2020 11:00:01.789,-0.0521, 1.0322, 0.0402, 0.0418, 0.1603, 0.1086,-2.1596,-1.5033, 2.5366
09-Sep-2020 11:00:01.799,-0.0597, 1.0134, 0.0593, 0.0128, 0.1486, 0.0799,-2.1608,-1.5044, 2.5346
09-Sep-2020 11:00:01.809,-0.0548, 0.9711, 0.0530,-0.0054, 0.0938, 0.0983,-2.1636,-1.5053, 2.5312
09-Sep-2020 11:00:01.819,-0.0371, 0.9982, 0.0458,-0.0388, 0.0365, 0.1025,-2.1709,-1.5061, 2.5238
09-Sep-2020 11:00:01.828,-0.0278, 1.0195, 0.0379,-0.0829, 0.0037, 0.1069,-2.1841,-1.5068, 2.5110
09-Sep-2020 11:00:01.838,-0.0203, 1.0063, 0.0139,-0.0814,-0.0210, 0.1109,-2.2037,-1.5073, 2.4921
09-Sep-2020 11:00:01.848,-0.0140, 0.9937, 0.0104,-0.0761,-0.0439, 0.1088,-2.2249,-1.5078, 2.4719
09-Sep-2020 11:00:01.859,-0.0072, 0.9853, 0.0159,-0.0907,-0.0350, 0.1014,-2.2456,-1.5083, 2.4524
09-Sep-2020 11:00:01.869, 0.0028, 0.9889, 0.0220,-0.1456, 0.0058, 0.0912,-2.2676,-1.5086, 2.4315
09-Sep-2020 11:00:01.879, 0.0143, 0.9915, 0.0289,-0.2120, 0.0982, 0.0873,-2.2948,-1.5084, 2.4049
09-Sep-2020 11:00:01.888, 0.0154, 0.9925, 0.0237,-0.2287, 0.2037, 0.0869,-2.3276,-1.5077, 2.3718
09-Sep-2020 11:00:01.898, 0.0067, 1.0051, 0.0061,-0.1423, 0.2573, 0.1310,-2.3605,-1.5069, 2.3375
09-Sep-2020 11:00:01.908,-0.0190, 1.0183, 0.0180,-0.0424, 0.2668, 0.1258,-2.3876,-1.5068, 2.3085
09-Sep-2020 11:00:01.919,-0.0201, 0.9968, 0.0848,-0.0821, 0.4015, 0.1192,-2.4050,-1.5074, 2.2891
09-Sep-2020 11:00:01.928,-0.0254, 0.9535, 0.1041,-0.1550, 0.5939, 0.1143,-2.4238,-1.5076, 2.2669
09-Sep-2020 11:00:01.938,-0.0192, 0.9783, 0.0705,-0.1399, 0.7098, 0.1072,-2.4470,-1.5074, 2.2385
09-Sep-2020 11:00:01.948, 0.0052, 1.0187, 0.0647,-0.1829, 0.7854, 0.0826,-2.4676,-1.5071, 2.2116
09-Sep-2020 11:00:01.958, 0.0176, 1.0166, 0.0397,-0.1771, 0.7918, 0.0646,-2.4875,-1.5063, 2.1846
09-Sep-2020 11:00:01.968, 0.0166, 1.0024, 0.0046,-0.1213, 0.6940, 0.0728,-2.5044,-1.5054, 2.1606
09-Sep-2020 11:00:01.978, 0.0004, 0.9935,-0.0145,-0.0637, 0.5226, 0.0851,-2.5179,-1.5049, 2.1410
09-Sep-2020 11:00:01.988,-0.0289, 0.9849,-0.0177,-0.0189, 0.3256, 0.1021,-2.5294,-1.5049, 2.1251
09-Sep-2020 11:00:01.998,-0.0658, 0.9822,-0.0131, 0.0338, 0.1277, 0.1226,-2.5410,-1.5054, 2.1111
09-Sep-2020 11:00:02.007,-0.1042, 0.9929, 0.0034, 0.0942,-0.0478, 0.1319,-2.5529,-1.5065, 2.0988
09-Sep-2020 11:00:02.017,-0.1313, 1.0064, 0.0250, 0.1242,-0.1774, 0.1064,-2.5629,-1.5080, 2.0902
09-Sep-2020 11:00:02.027,-0.1370, 1.0087, 0.0431, 0.1055,-0.2684, 0.0582,-2.5686,-1.5097, 2.0872
09-Sep-2020 11:00:02.038,-0.1189, 1.0042, 0.0413, 0.0657,-0.3710, 0.0198,-2.5707,-1.5109, 2.0886
09-Sep-2020 11:00:02.047,-0.0991, 0.9997, 0.0272, 0.0357,-0.5097, 0.0018,-2.5722,-1.5117, 2.0917
09-Sep-2020 11:00:02.058,-0.0869, 1.0049, 0.0238, 0.0109,-0.6525,-0.0109,-2.5750,-1.5121, 2.0950
09-Sep-2020 11:00:02.067,-0.0784, 1.0115, 0.0276,-0.0249,-0.7569,-0.0194,-2.5796,-1.5122, 2.0977
09-Sep-2020 11:00:02.077,-0.0702, 1.0170, 0.0345,-0.0589,-0.8094,-0.0202,-2.5874,-1.5119, 2.0983
09-Sep-2020 11:00:02.087,-0.0603, 1.0065, 0.0348,-0.0686,-0.8446,-0.0374,-2.5982,-1.5114, 2.0963
09-Sep-2020 11:00:02.097,-0.0441, 0.9934, 0.0356,-0.0640,-0.8741,-0.0515,-2.6079,-1.5107, 2.0956
09-Sep-2020 11:00:02.107,-0.0288, 0.9849, 0.0679,-0.1104,-0.8014,-0.0503,-2.6156,-1.5099, 2.0972
09-Sep-2020 11:00:02.117,-0.0176, 0.9830, 0.0897,-0.1853,-0.6207,-0.0510,-2.6260,-1.5088, 2.0952
09-Sep-2020 11:00:02.127,-0.0132, 0.9911, 0.0639,-0.2118,-0.4964,-0.0556,-2.6398,-1.5070, 2.0880
09-Sep-2020 11:00:02.137,-0.0186, 0.9896, 0.0435,-0.2011,-0.4221,-0.0563,-2.6533,-1.5050, 2.0798
09-Sep-2020 11:00:02.147,-0.0186, 1.0047, 0.0246,-0.1715,-0.4237,-0.0601,-2.6646,-1.5030, 2.0728
09-Sep-2020 11:00:02.157, 0.0077, 1.0581, 0.0090,-0.1110,-0.5424,-0.0667,-2.6731,-1.5013, 2.0687
09-Sep-2020 11:00:02.167, 0.0217, 1.0427, 0.0288,-0.0758,-0.6957,-0.0695,-2.6780,-1.5001, 2.0694
09-Sep-2020 11:00:02.177, 0.0186, 0.9943, 0.0482,-0.0909,-0.7953,-0.0575,-2.6820,-1.4992, 2.0725
09-Sep-2020 11:00:02.187, 0.0114, 0.9747, 0.0461,-0.1052,-0.8196,-0.0482,-2.6889,-1.4982, 2.0736
09-Sep-2020 11:00:02.197, 0.0086, 0.9752, 0.0300,-0.0978,-0.8273,-0.0293,-2.6982,-1.4971, 2.0726
09-Sep-2020 11:00:02.207,-0.0056, 0.9865, 0.0227,-0.0707,-0.8118,-0.0607,-2.7083,-1.4961, 2.0708
09-Sep-2020 11:00:02.217,-0.0011, 0.9859, 0.0584,-0.0578,-0.6902,-0.0630,-2.7139,-1.4953, 2.0733
09-Sep-2020 11:00:02.226, 0.0013, 0.9882, 0.0773,-0.0867,-0.5189,-0.0461,-2.7174,-1.4946, 2.0768
09-Sep-2020 11:00:02.237, 0.0077, 0.9975, 0.0714,-0.0951,-0.3985,-0.0591,-2.7219,-1.4937, 2.0776
09-Sep-2020 11:00:02.247, 0.0236, 0.9968, 0.0696,-0.0844,-0.3239,-0.0625,-2.7248,-1.4926, 2.0788
09-Sep-2020 11:00:02.257, 0.0358, 0.9908, 0.0718,-0.0699,-0.2739,-0.0720,-2.7257,-1.4917, 2.0812
09-Sep-2020 11:00:02.266, 0.0456, 0.9860, 0.0748,-0.0711,-0.2274,-0.0744,-2.7247,-1.4908, 2.0851
09-Sep-2020 11:00:02.276, 0.0459, 0.9870, 0.0754,-0.0874,-0.1758,-0.0655,-2.7230,-1.4899, 2.0892
09-Sep-2020 11:00:02.287, 0.0395, 0.9915, 0.0660,-0.1038,-0.1377,-0.0664,-2.7224,-1.4889, 2.0917
09-Sep-2020 11:00:02.296, 0.0369, 0.9885, 0.0516,-0.1081,-0.1046,-0.0682,-2.7221,-1.4878, 2.0934
09-Sep-2020 11:00:02.306, 0.0366, 0.9845, 0.0381,-0.1028,-0.0982,-0.0632,-2.7218,-1.4866, 2.0949
09-Sep-2020 11:00:02.316, 0.0397, 0.9845, 0.0345,-0.0809,-0.1041,-0.0619,-2.7215,-1.4855, 2.0963
09-Sep-2020 11:00:02.326, 0.0457, 0.9871, 0.0396,-0.0663,-0.1076,-0.0560,-2.7206,-1.4846, 2.0983
09-Sep-2020 11:00:02.336, 0.0515, 0.9907, 0.0482,-0.0603,-0.0972,-0.0588,-2.7195,-1.4838, 2.1006
09-Sep-2020 11:00:02.346, 0.0542, 0.9946, 0.0565,-0.0616,-0.0747,-0.0520,-2.7181,-1.4831, 2.1032
09-Sep-2020 11:00:02.356, 0.0540, 0.9943, 0.0634,-0.0632,-0.0357,-0.0463,-2.7169,-1.4824, 2.1051
09-Sep-2020 11:00:02.366, 0.0531, 0.9916, 0.0686,-0.0679, 0.0088,-0.0389,-2.7161,-1.4817, 2.1063
09-Sep-2020 11:00:02.376, 0.0487, 0.9890, 0.0701,-0.0563, 0.0560,-0.0324,-2.7158,-1.4810, 2.1067
09-Sep-2020 11:00:02.386, 0.0431, 0.9850, 0.0707,-0.0519, 0.0955,-0.0287,-2.7163,-1.4805, 2.1057
09-Sep-2020 11:00:02.396, 0.0420, 0.9837, 0.0706,-0.0518, 0.1243,-0.0290,-2.7163,-1.4801, 2.1049
09-Sep-2020 11:00:02.405, 0.0411, 0.9849, 0.0703,-0.0516, 0.1504,-0.0333,-2.7159,-1.4797, 2.1041
09-Sep-2020 11:00:02.415, 0.0401, 0.9873, 0.0657,-0.0547, 0.1706,-0.0285,-2.7152,-1.4793, 2.1034
09-Sep-2020 11:00:02.425, 0.0407, 0.9916, 0.0583,-0.0525, 0.1854,-0.0288,-2.7147,-1.4789, 2.1023
09-Sep-2020 11:00:02.435, 0.0415, 0.9984, 0.0554,-0.0449, 0.2020,-0.0206,-2.7142,-1.4785, 2.1010
09-Sep-2020 11:00:02.446, 0.0372, 1.0000, 0.0604,-0.0352, 0.2301,-0.0159,-2.7140,-1.4781, 2.0994
09-Sep-2020 11:00:02.455, 0.0298, 1.0004, 0.0691,-0.0272, 0.2557,-0.0139,-2.7135,-1.4779, 2.0976
09-Sep-2020 11:00:02.465, 0.0257, 0.9984, 0.0808,-0.0176, 0.2892,-0.0091,-2.7126,-1.4778, 2.0961
09-Sep-2020 11:00:02.475, 0.0228, 0.9951, 0.0907,-0.0097, 0.3200,-0.0054,-2.7114,-1.4777, 2.0945
09-Sep-2020 11:00:02.485, 0.0201, 0.9886, 0.0977,-0.0169, 0.3528,-0.0067,-2.7098,-1.4777, 2.0930
09-Sep-2020 11:00:02.496, 0.0193, 0.9863, 0.0988,-0.0177, 0.3756,-0.0077,-2.7081,-1.4777, 2.0913
09-Sep-2020 11:00:02.505, 0.0150, 0.9867, 0.0993,-0.0164, 0.3917,-0.0075,-2.7061,-1.4777, 2.0896
09-Sep-2020 11:00:02.515, 0.0131, 0.9934, 0.1006,-0.0130, 0.3934,-0.0055,-2.7039,-1.4776, 2.0881
09-Sep-2020 11:00:02.525, 0.0115, 0.9955, 0.1040,-0.0117, 0.3995,-0.0134,-2.7015,-1.4777, 2.0867
09-Sep-2020 11:00:02.535, 0.0110, 0.9869, 0.1013,-0.0155, 0.4083,-0.0188,-2.6983,-1.4777, 2.0859
09-Sep-2020 11:00:02.546, 0.0106, 0.9792, 0.0969,-0.0162, 0.4095,-0.0192,-2.6947,-1.4776, 2.0856
09-Sep-2020 11:00:02.555, 0.0098, 0.9754, 0.0951,-0.0183, 0.4170,-0.0219,-2.6902,-1.4774, 2.0862
09-Sep-2020 11:00:02.565, 0.0184, 0.9786, 0.0926,-0.0108, 0.4440,-0.0232,-2.6853,-1.4772, 2.0870
09-Sep-2020 11:00:02.575, 0.0191, 0.9805, 0.0928, 0.0065, 0.4774,-0.0144,-2.6798,-1.4771, 2.0882
09-Sep-2020 11:00:02.585, 0.0135, 0.9820, 0.0968, 0.0215, 0.4778,-0.0072,-2.6738,-1.4772, 2.0894
09-Sep-2020 11:00:02.595, 0.0093, 0.9830, 0.1048, 0.0309, 0.4692,-0.0009,-2.6678,-1.4774, 2.0908
09-Sep-2020 11:00:02.605, 0.0064, 0.9817, 0.1098, 0.0284, 0.4631,-0.0043,-2.6621,-1.4777, 2.0919
09-Sep-2020 11:00:02.615, 0.0134, 0.9839, 0.1062, 0.0311, 0.4605,-0.0014,-2.6564,-1.4780, 2.0932
09-Sep-2020 11:00:02.625, 0.0113, 0.9845, 0.1051, 0.0371, 0.4540,-0.0053,-2.6505,-1.4783, 2.0945
09-Sep-2020 11:00:02.635, 0.0038, 0.9891, 0.0982, 0.0448, 0.4374, 0.0006,-2.6441,-1.4787, 2.0966
09-Sep-2020 11:00:02.644,-0.0067, 1.0017, 0.0875, 0.0459, 0.3912, 0.0118,-2.6380,-1.4792, 2.0985
09-Sep-2020 11:00:02.655,-0.0231, 1.0120, 0.0779, 0.0406, 0.3191, 0.0181,-2.6333,-1.4797, 2.0994
09-Sep-2020 11:00:02.664,-0.0407, 1.0205, 0.0703, 0.0338, 0.2226, 0.0182,-2.6302,-1.4802, 2.0994
09-Sep-2020 11:00:02.674,-0.0561, 1.0258, 0.0664, 0.0174, 0.1331, 0.0257,-2.6285,-1.4807, 2.0990
09-Sep-2020 11:00:02.684,-0.0808, 1.0304, 0.0655,-0.0038, 0.0501, 0.0355,-2.6294,-1.4810, 2.0970
09-Sep-2020 11:00:02.694,-0.1084, 1.0344, 0.0701,-0.0179,-0.0287, 0.0285,-2.6328,-1.4812, 2.0931
09-Sep-2020 11:00:02.705,-0.1220, 1.0302, 0.0790,-0.0325,-0.0982, 0.0311,-2.6374,-1.4813, 2.0889
09-Sep-2020 11:00:02.714,-0.1262, 1.0210, 0.0763,-0.0261,-0.1826, 0.0508,-2.6439,-1.4812, 2.0835
09-Sep-2020 11:00:02.724,-0.1521, 1.0044, 0.0788,-0.0236,-0.2560, 0.0394,-2.6523,-1.4813, 2.0769
09-Sep-2020 11:00:02.734,-0.1499, 0.9797, 0.0912,-0.0282,-0.2791, 0.0357,-2.6605,-1.4813, 2.0714
09-Sep-2020 11:00:02.744,-0.1400, 0.9707, 0.0882,-0.0234,-0.2870, 0.0344,-2.6687,-1.4813, 2.0660
09-Sep-2020 11:00:02.755,-0.1230, 0.9808, 0.0762,-0.0137,-0.3075, 0.0110,-2.6766,-1.4814, 2.0611
09-Sep-2020 11:00:02.764,-0.0888, 0.9852, 0.0731,-0.0071,-0.3369,-0.0182,-2.6820,-1.4813, 2.0589
09-Sep-2020 11:00:02.774,-0.0579, 0.9853, 0.0779,-0.0066,-0.3537,-0.0299,-2.6847,-1.4813, 2.0596
09-Sep-2020 11:00:02.784,-0.0402, 0.9858, 0.0848,-0.0067,-0.3513,-0.0438,-2.6860,-1.4811, 2.0619
09-Sep-2020 11:00:02.794,-0.0331, 0.9879, 0.0907,-0.0151,-0.3316,-0.0631,-2.6860,-1.4809, 2.0656
09-Sep-2020 11:00:02.804,-0.0258, 0.9896, 0.0964,-0.0256,-0.3022,-0.0702,-2.6831,-1.4806, 2.0718
09-Sep-2020 11:00:02.814,-0.0202, 0.9897, 0.0964,-0.0317,-0.2714,-0.0761,-2.6794,-1.4800, 2.0786
09-Sep-2020 11:00:02.824,-0.0138, 0.9868, 0.0899,-0.0388,-0.2466,-0.0793,-2.6751,-1.4794, 2.0858
09-Sep-2020 11:00:02.834,-0.0074, 0.9864, 0.0766,-0.0337,-0.2381,-0.0752,-2.6708,-1.4787, 2.0926
09-Sep-2020 11:00:02.844,-0.0021, 0.9902, 0.0670,-0.0246,-0.2348,-0.0680,-2.6669,-1.4781, 2.0991
09-Sep-2020 11:00:02.854,-0.0004, 0.9974, 0.0600,-0.0159,-0.2321,-0.0608,-2.6635,-1.4776, 2.1050
09-Sep-2020 11:00:02.864,-0.0001, 1.0030, 0.0509,-0.0052,-0.2356,-0.0521,-2.6615,-1.4772, 2.1094
09-Sep-2020 11:00:02.873,-0.0014, 1.0045, 0.0453, 0.0025,-0.2417,-0.0391,-2.6598,-1.4770, 2.1136
09-Sep-2020 11:00:02.883,-0.0059, 1.0035, 0.0466, 0.0092,-0.2452,-0.0281,-2.6588,-1.4769, 2.1170
09-Sep-2020 11:00:02.893,-0.0144, 1.0040, 0.0522, 0.0102,-0.2487,-0.0131,-2.6587,-1.4769, 2.1197
09-Sep-2020 11:00:02.903,-0.0208, 1.0066, 0.0609, 0.0027,-0.2488,-0.0036,-2.6600,-1.4770, 2.1209
09-Sep-2020 11:00:02.914,-0.0234, 1.0043, 0.0665,-0.0014,-0.2546, 0.0092,-2.6626,-1.4771, 2.1209
09-Sep-2020 11:00:02.923,-0.0257, 0.9983, 0.0720,-0.0083,-0.2502, 0.0168,-2.6665,-1.4772, 2.1196
09-Sep-2020 11:00:02.933,-0.0241, 0.9926, 0.0697,-0.0123,-0.2558, 0.0228,-2.6716,-1.4773, 2.1171
09-Sep-2020 11:00:02.943,-0.0219, 0.9873, 0.0645,-0.0100,-0.2578, 0.0280,-2.6774,-1.4773, 2.1139
09-Sep-2020 11:00:02.954,-0.0230, 0.9862, 0.0615,-0.0124,-0.2606, 0.0283,-2.6837,-1.4774, 2.1103
09-Sep-2020 11:00:02.963,-0.0264, 0.9889, 0.0632,-0.0142,-0.2596, 0.0275,-2.6905,-1.4776, 2.1062
09-Sep-2020 11:00:02.973,-0.0347, 0.9935, 0.0664,-0.0091,-0.2609, 0.0257,-2.6973,-1.4778, 2.1021
09-Sep-2020 11:00:02.983,-0.0416, 0.9921, 0.0692,-0.0072,-0.2599, 0.0251,-2.7035,-1.4779, 2.0985
09-Sep-2020 11:00:02.993,-0.0453, 0.9852, 0.0695,-0.0080,-0.2640, 0.0116,-2.7093,-1.4781, 2.0954
09-Sep-2020 11:00:03.003,-0.0426, 0.9838, 0.0754,-0.0135,-0.2819, 0.0019,-2.7141,-1.4782, 2.0933
09-Sep-2020 11:00:03.013,-0.0301, 0.9855, 0.0793,-0.0173,-0.2858,-0.0013,-2.7184,-1.4782, 2.0919
09-Sep-2020 11:00:03.023,-0.0140, 0.9901, 0.0845,-0.0195,-0.2877,-0.0077,-2.7224,-1.4781, 2.0907
09-Sep-2020 11:00:03.032, 0.0034, 0.9931, 0.0863,-0.0221,-0.2717,-0.0073,-2.7262,-1.4780, 2.0899
09-Sep-2020 11:00:03.042, 0.0176, 0.9977, 0.0847,-0.0260,-0.2512,-0.0031,-2.7299,-1.4778, 2.0890
09-Sep-2020 11:00:03.053, 0.0243, 1.0030, 0.0784,-0.0309,-0.2364, 0.0012,-2.7339,-1.4776, 2.0876
09-Sep-2020 11:00:03.063, 0.0223, 1.0068, 0.0742,-0.0369,-0.2220, 0.0050,-2.7383,-1.4774, 2.0856
09-Sep-2020 11:00:03.073, 0.0158, 1.0050, 0.0695,-0.0371,-0.2152, 0.0065,-2.7431,-1.4772, 2.0831
09-Sep-2020 11:00:03.082, 0.0083, 0.9988, 0.0628,-0.0361,-0.2071, 0.0082,-2.7479,-1.4769, 2.0805
09-Sep-2020 11:00:03.092, 0.0061, 0.9913, 0.0566,-0.0244,-0.1982, 0.0051,-2.7525,-1.4767, 2.0781
09-Sep-2020 11:00:03.103, 0.0091, 0.9838, 0.0529,-0.0121,-0.1881, 0.0013,-2.7565,-1.4766, 2.0761
09-Sep-2020 11:00:03.112, 0.0151, 0.9757, 0.0528, 0.0119,-0.1815,-0.0012,-2.7597,-1.4766, 2.0748
09-Sep-2020 11:00:03.122, 0.0209, 0.9718, 0.0603, 0.0249,-0.1687,-0.0016,-2.7620,-1.4768, 2.0744
09-Sep-2020 11:00:03.132, 0.0258, 0.9720, 0.0738, 0.0247,-0.1529,-0.0023,-2.7638,-1.4771, 2.0744
09-Sep-2020 11:00:03.142, 0.0281, 0.9790, 0.0849, 0.0206,-0.1321, 0.0015,-2.7656,-1.4774, 2.0742
09-Sep-2020 11:00:03.153, 0.0265, 0.9896, 0.0933, 0.0193,-0.1206, 0.0070,-2.7676,-1.4777, 2.0735
09-Sep-2020 11:00:03.162, 0.0212, 0.9980, 0.0984, 0.0154,-0.1182, 0.0082,-2.7700,-1.4780, 2.0724
09-Sep-2020 11:00:03.172, 0.0160, 1.0070, 0.0955, 0.0154,-0.1236, 0.0121,-2.7726,-1.4783, 2.0711
09-Sep-2020 11:00:03.182, 0.0107, 1.0094, 0.0899, 0.0091,-0.1301, 0.0135,-2.7756,-1.4787, 2.0694
09-Sep-2020 11:00:03.192, 0.0048, 1.0120, 0.0833, 0.0038,-0.1341, 0.0092,-2.7788,-1.4789, 2.0675
09-Sep-2020 11:00:03.202,-0.0023, 1.0096, 0.0735, 0.0048,-0.1197, 0.0052,-2.7820,-1.4791, 2.0658
09-Sep-2020 11:00:03.212,-0.0067, 1.0034, 0.0712, 0.0060,-0.0882,-0.0017,-2.7847,-1.4793, 2.0643
09-Sep-2020 11:00:03.222,-0.0057, 0.9935, 0.0732, 0.0097,-0.0381,-0.0095,-2.7864,-1.4795, 2.0635
09-Sep-2020 11:00:03.232, 0.0010, 0.9852, 0.0746, 0.0129, 0.0078,-0.0180,-2.7869,-1.4796, 2.0635
09-Sep-2020 11:00:03.242, 0.0104, 0.9821, 0.0754, 0.0152, 0.0414,-0.0206,-2.7861,-1.4798, 2.0643
09-Sep-2020 11:00:03.252, 0.0231, 0.9830, 0.0783, 0.0127, 0.0439,-0.0233,-2.7845,-1.4799, 2.0656
09-Sep-2020 11:00:03.262, 0.0345, 0.9864, 0.0856, 0.0010, 0.0452,-0.0169,-2.7827,-1.4800, 2.0671
09-Sep-2020 11:00:03.272, 0.0417, 0.9902, 0.0912,-0.0076, 0.0486,-0.0040,-2.7819,-1.4801, 2.0674
09-Sep-2020 11:00:03.281, 0.0444, 0.9968, 0.0941,-0.0082, 0.0572, 0.0078,-2.7827,-1.4801, 2.0663
09-Sep-2020 11:00:03.291, 0.0386, 1.0019, 0.0917,-0.0072, 0.0732, 0.0172,-2.7845,-1.4801, 2.0640
09-Sep-2020 11:00:03.301, 0.0241, 0.9989, 0.0823,-0.0034, 0.1053, 0.0209,-2.7867,-1.4802, 2.0610
09-Sep-2020 11:00:03.311, 0.0103, 0.9917, 0.0628, 0.0099, 0.1417, 0.0220,-2.7888,-1.4804, 2.0580
09-Sep-2020 11:00:03.321, 0.0018, 0.9857, 0.0431, 0.0308, 0.1739, 0.0207,-2.7902,-1.4806, 2.0552
09-Sep-2020 11:00:03.331,-0.0047, 0.9816, 0.0320, 0.0509, 0.1967, 0.0196,-2.7906,-1.4811, 2.0532
09-Sep-2020 11:00:03.341,-0.0062, 0.9799, 0.0312, 0.0671, 0.2188, 0.0172,-2.7900,-1.4817, 2.0519
09-Sep-2020 11:00:03.351,-0.0065, 0.9829, 0.0439, 0.0700, 0.2392, 0.0129,-2.7887,-1.4825, 2.0511
09-Sep-2020 11:00:03.361,-0.0051, 0.9922, 0.0663, 0.0715, 0.2557, 0.0030,-2.7866,-1.4833, 2.0509
09-Sep-2020 11:00:03.371,-0.0034, 1.0029, 0.0881, 0.0636, 0.2635, 0.0001,-2.7836,-1.4841, 2.0514
09-Sep-2020 11:00:03.383,-0.0001, 1.0090, 0.1039, 0.0471, 0.2414,-0.0049,-2.7804,-1.4847, 2.0522
09-Sep-2020 11:00:03.391, 0.0034, 1.0081, 0.1075, 0.0283, 0.2129,-0.0055,-2.7773,-1.4853, 2.0530
09-Sep-2020 11:00:03.401, 0.0128, 1.0004, 0.0926, 0.0215, 0.1653,-0.0066,-2.7748,-1.4856, 2.0535
09-Sep-2020 11:00:03.411, 0.0248, 0.9945, 0.0678, 0.0299, 0.1276,-0.0018,-2.7726,-1.4859, 2.0541
09-Sep-2020 11:00:03.421, 0.0330, 0.9928, 0.0474, 0.0380, 0.1164, 0.0133,-2.7708,-1.4863, 2.0546
09-Sep-2020 11:00:03.431, 0.0351, 0.9922, 0.0358, 0.0490, 0.1411, 0.0200,-2.7702,-1.4869, 2.0542
09-Sep-2020 11:00:03.441, 0.0326, 0.9879, 0.0296, 0.0673, 0.2068, 0.0241,-2.7696,-1.4875, 2.0534
09-Sep-2020 11:00:03.451, 0.0246, 0.9767, 0.0269, 0.0896, 0.2885, 0.0240,-2.7680,-1.4884, 2.0530
09-Sep-2020 11:00:03.460, 0.0128, 0.9723, 0.0314, 0.1068, 0.3655, 0.0327,-2.7650,-1.4894, 2.0532
09-Sep-2020 11:00:03.470,-0.0040, 0.9772, 0.0425, 0.1187, 0.4252, 0.0460,-2.7616,-1.4905, 2.0531
09-Sep-2020 11:00:03.481,-0.0197, 0.9879, 0.0580, 0.1244, 0.4550, 0.0597,-2.7587,-1.4918, 2.0518
09-Sep-2020 11:00:03.490,-0.0304, 0.9951, 0.0724, 0.1141, 0.4444, 0.0716,-2.7569,-1.4932, 2.0492
09-Sep-2020 11:00:03.500,-0.0342, 1.0006, 0.0831, 0.1014, 0.4037, 0.0796,-2.7571,-1.4946, 2.0447
09-Sep-2020 11:00:03.510,-0.0260, 1.0044, 0.0895, 0.0748, 0.3222, 0.0958,-2.7587,-1.4959, 2.0391
09-Sep-2020 11:00:03.520,-0.0110, 1.0037, 0.0907, 0.0487, 0.2209, 0.1141,-2.7645,-1.4970, 2.0302
09-Sep-2020 11:00:03.530, 0.0075, 0.9996, 0.0891, 0.0188, 0.1115, 0.1319,-2.7751,-1.4979, 2.0175
09-Sep-2020 11:00:03.540, 0.0252, 0.9978, 0.0851, 0.0013, 0.0314, 0.1511,-2.7907,-1.4986, 2.0008
09-Sep-2020 11:00:03.550, 0.0386, 0.9988, 0.0767,-0.0005,-0.0067, 0.1650,-2.8106,-1.4992, 1.9806
09-Sep-2020 11:00:03.560, 0.0458, 0.9998, 0.0644, 0.0041, 0.0027, 0.1741,-2.8331,-1.4998, 1.9581
09-Sep-2020 11:00:03.570, 0.0451, 1.0019, 0.0555, 0.0098, 0.0559, 0.1691,-2.8568,-1.5004, 1.9344
09-Sep-2020 11:00:03.580, 0.0341, 1.0024, 0.0471, 0.0135, 0.1375, 0.1491,-2.8795,-1.5010, 1.9112
09-Sep-2020 11:00:03.590, 0.0198, 0.9982, 0.0372, 0.0159, 0.2290, 0.1207,-2.8989,-1.5015, 1.8904
09-Sep-2020 11:00:03.600, 0.0043, 0.9869, 0.0298, 0.0259, 0.3275, 0.0912,-2.9138,-1.5020, 1.8732
09-Sep-2020 11:00:03.610,-0.0067, 0.9772, 0.0270, 0.0443, 0.4097, 0.0705,-2.9236,-1.5025, 1.8602
09-Sep-2020 11:00:03.620,-0.0106, 0.9742, 0.0320, 0.0697, 0.4774, 0.0475,-2.9290,-1.5031, 1.8509
09-Sep-2020 11:00:03.630,-0.0075, 0.9748, 0.0434, 0.0849, 0.5081, 0.0268,-2.9299,-1.5040, 1.8454
09-Sep-2020 11:00:03.641, 0.0023, 0.9788, 0.0595, 0.0876, 0.5227, 0.0196,-2.9272,-1.5049, 1.8431
09-Sep-2020 11:00:03.650, 0.0095, 0.9859, 0.0727, 0.0718, 0.5211, 0.0134,-2.9230,-1.5058, 1.8422
09-Sep-2020 11:00:03.660, 0.0159, 0.9964, 0.0758, 0.0520, 0.5033, 0.0102,-2.9184,-1.5066, 1.8417
09-Sep-2020 11:00:03.670, 0.0189, 1.0056, 0.0643, 0.0381, 0.4894, 0.0081,-2.9142,-1.5072, 1.8410
09-Sep-2020 11:00:03.679, 0.0166, 1.0126, 0.0440, 0.0324, 0.4754, 0.0050,-2.9102,-1.5076, 1.8402
09-Sep-2020 11:00:03.690, 0.0095, 1.0117, 0.0235, 0.0331, 0.4741,-0.0078,-2.9058,-1.5080, 1.8399
09-Sep-2020 11:00:03.699, 0.0033, 1.0049, 0.0097, 0.0437, 0.4841,-0.0229,-2.8994,-1.5084, 1.8416
09-Sep-2020 11:00:03.709, 0.0022, 0.9974, 0.0001, 0.0579, 0.5042,-0.0354,-2.8906,-1.5088, 1.8458
09-Sep-2020 11:00:03.720, 0.0048, 0.9955, 0.0003, 0.0734, 0.5162,-0.0443,-2.8789,-1.5093, 1.8525
09-Sep-2020 11:00:03.730, 0.0114, 0.9925, 0.0162, 0.0821, 0.5222,-0.0506,-2.8646,-1.5099, 1.8618
09-Sep-2020 11:00:03.739, 0.0227, 0.9872, 0.0423, 0.0802, 0.5345,-0.0548,-2.8485,-1.5106, 1.8728
09-Sep-2020 11:00:03.749, 0.0307, 0.9866, 0.0661, 0.0714, 0.5427,-0.0523,-2.8316,-1.5113, 1.8846
09-Sep-2020 11:00:03.759, 0.0346, 0.9884, 0.0797, 0.0595, 0.5477,-0.0448,-2.8151,-1.5118, 1.8958
09-Sep-2020 11:00:03.770, 0.0358, 0.9938, 0.0819, 0.0498, 0.5525,-0.0291,-2.8003,-1.5123, 1.9052
09-Sep-2020 11:00:03.779, 0.0318, 0.9971, 0.0736, 0.0472, 0.5504,-0.0101,-2.7882,-1.5127, 1.9120
09-Sep-2020 11:00:03.789, 0.0245, 0.9970, 0.0592, 0.0511, 0.5358, 0.0072,-2.7792,-1.5132, 1.9156
09-Sep-2020 11:00:03.799, 0.0160, 0.9974, 0.0445, 0.0547, 0.5174, 0.0236,-2.7729,-1.5137, 1.9166
09-Sep-2020 11:00:03.809, 0.0085, 0.9950, 0.0358, 0.0565, 0.4915, 0.0360,-2.7691,-1.5144, 1.9154
09-Sep-2020 11:00:03.819, 0.0031, 0.9940, 0.0330, 0.0544, 0.4768, 0.0478,-2.7675,-1.5151, 1.9124
09-Sep-2020 11:00:03.829,-0.0034, 0.9934, 0.0372, 0.0523, 0.4665, 0.0535,-2.7680,-1.5158, 1.9075
09-Sep-2020 11:00:03.839,-0.0099, 0.9942, 0.0425, 0.0454, 0.4624, 0.0583,-2.7698,-1.5166, 1.9013
09-Sep-2020 11:00:03.849,-0.0170, 0.9951, 0.0523, 0.0478, 0.4644, 0.0563,-2.7727,-1.5173, 1.8942
09-Sep-2020 11:00:03.859,-0.0225, 0.9983, 0.0590, 0.0477, 0.4605, 0.0531,-2.7755,-1.5180, 1.8871
09-Sep-2020 11:00:03.869,-0.0270, 1.0027, 0.0617, 0.0507, 0.4558, 0.0543,-2.7781,-1.5187, 1.8805
09-Sep-2020 11:00:03.878,-0.0316, 1.0072, 0.0600, 0.0504, 0.4549, 0.0592,-2.7810,-1.5194, 1.8735
09-Sep-2020 11:00:03.888,-0.0372, 1.0097, 0.0553, 0.0482, 0.4548, 0.0636,-2.7849,-1.5201, 1.8656
09-Sep-2020 11:00:03.898,-0.0440, 1.0119, 0.0520, 0.0493, 0.4536, 0.0700,-2.7899,-1.5209, 1.8565
09-Sep-2020 11:00:03.908,-0.0518, 1.0115, 0.0493, 0.0470, 0.4432, 0.0754,-2.7963,-1.5216, 1.8462
09-Sep-2020 11:00:03.919,-0.0598, 1.0096, 0.0449, 0.0546, 0.4176, 0.0773,-2.8038,-1.5224, 1.8348
09-Sep-2020 11:00:03.928,-0.0630, 1.0109, 0.0419, 0.0589, 0.3877, 0.0683,-2.8118,-1.5232, 1.8233
09-Sep-2020 11:00:03.938,-0.0583, 1.0147, 0.0432, 0.0551, 0.3574, 0.0680,-2.8191,-1.5240, 1.8127
09-Sep-2020 11:00:03.948,-0.0536, 1.0163, 0.0453, 0.0459, 0.3324, 0.0654,-2.8268,-1.5248, 1.8020
09-Sep-2020 11:00:03.958,-0.0489, 1.0141, 0.0457, 0.0395, 0.3003, 0.0574,-2.8349,-1.5255, 1.7913
09-Sep-2020 11:00:03.968,-0.0443, 1.0059, 0.0422, 0.0270, 0.2625, 0.0467,-2.8427,-1.5261, 1.7811
09-Sep-2020 11:00:03.978,-0.0395, 0.9978, 0.0344, 0.0185, 0.2230, 0.0422,-2.8500,-1.5265, 1.7719
09-Sep-2020 11:00:03.988,-0.0363, 0.9905, 0.0294, 0.0072, 0.1913, 0.0303,-2.8571,-1.5269, 1.7632
09-Sep-2020 11:00:03.998,-0.0349, 0.9881, 0.0248, 0.0041, 0.1780, 0.0246,-2.8632,-1.5271, 1.7559
09-Sep-2020 11:00:04.008,-0.0326, 0.9883, 0.0231, 0.0134, 0.1828, 0.0172,-2.8679,-1.5273, 1.7501
09-Sep-2020 11:00:04.018,-0.0344, 0.9856, 0.0283, 0.0218, 0.1994, 0.0091,-2.8703,-1.5275, 1.7466
09-Sep-2020 11:00:04.028,-0.0339, 0.9852, 0.0320, 0.0230, 0.2101,-0.0007,-2.8702,-1.5278, 1.7454
09-Sep-2020 11:00:04.038,-0.0260, 0.9904, 0.0307, 0.0174, 0.2035,-0.0072,-2.8679,-1.5280, 1.7463
09-Sep-2020 11:00:04.048,-0.0199, 0.9939, 0.0257, 0.0069, 0.1691,-0.0117,-2.8644,-1.5282, 1.7484
09-Sep-2020 11:00:04.058,-0.0198, 0.9922, 0.0158,-0.0061, 0.1093,-0.0125,-2.8614,-1.5283, 1.7504
09-Sep-2020 11:00:04.068,-0.0196, 0.9971, 0.0038,-0.0056, 0.0287,-0.0184,-2.8592,-1.5283, 1.7522
09-Sep-2020 11:00:04.078,-0.0158, 1.0028,-0.0009,-0.0041,-0.0291,-0.0250,-2.8554,-1.5282, 1.7564
09-Sep-2020 11:00:04.088,-0.0063, 1.0006, 0.0035,-0.0034,-0.0439,-0.0333,-2.8508,-1.5282, 1.7620
09-Sep-2020 11:00:04.098, 0.0055, 0.9952, 0.0074, 0.0037,-0.0299,-0.0305,-2.8448,-1.5282, 1.7691
09-Sep-2020 11:00:04.108, 0.0163, 0.9954, 0.0092, 0.0122,-0.0015,-0.0298,-2.8383,-1.5282, 1.7765
09-Sep-2020 11:00:04.117, 0.0255, 0.9967, 0.0128, 0.0202, 0.0245,-0.0352,-2.8310,-1.5283, 1.7845
09-Sep-2020 11:00:04.127, 0.0334, 0.9979, 0.0211, 0.0254, 0.0439,-0.0350,-2.8222,-1.5284, 1.7936
09-Sep-2020 11:00:04.137, 0.0382, 0.9996, 0.0297, 0.0291, 0.0568,-0.0326,-2.8130,-1.5286, 1.8029
09-Sep-2020 11:00:04.148, 0.0394, 0.9961, 0.0386, 0.0236, 0.0612,-0.0351,-2.8036,-1.5289, 1.8123
09-Sep-2020 11:00:04.157, 0.0422, 0.9904, 0.0475, 0.0213, 0.0593,-0.0314,-2.7943,-1.5291, 1.8216
09-Sep-2020 11:00:04.167, 0.0484, 0.9897, 0.0506, 0.0129, 0.0539,-0.0245,-2.7860,-1.5293, 1.8299
09-Sep-2020 11:00:04.177, 0.0510, 0.9897, 0.0521, 0.0130, 0.0596,-0.0197,-2.7795,-1.5294, 1.8363
09-Sep-2020 11:00:04.187, 0.0504, 0.9907, 0.0521, 0.0168, 0.0690,-0.0101,-2.7745,-1.5296, 1.8413
09-Sep-2020 11:00:04.197, 0.0454, 0.9948, 0.0500, 0.0197, 0.0803, 0.0001,-2.7718,-1.5298, 1.8439
09-Sep-2020 11:00:04.207, 0.0354, 1.0007, 0.0495, 0.0261, 0.0940, 0.0101,-2.7715,-1.5301, 1.8439
09-Sep-2020 11:00:04.217, 0.0232, 1.0058, 0.0479, 0.0372, 0.1018, 0.0225,-2.7732,-1.5305, 1.8416
09-Sep-2020 11:00:04.227, 0.0084, 1.0124, 0.0482, 0.0470, 0.0920, 0.0283,-2.7769,-1.5311, 1.8375
09-Sep-2020 11:00:04.237,-0.0053, 1.0150, 0.0545, 0.0486, 0.0779, 0.0316,-2.7817,-1.5317, 1.8323
09-Sep-2020 11:00:04.247,-0.0175, 1.0146, 0.0633, 0.0390, 0.0543, 0.0313,-2.7873,-1.5323, 1.8264
09-Sep-2020 11:00:04.257,-0.0220, 1.0159, 0.0695, 0.0237, 0.0314, 0.0247,-2.7945,-1.5329, 1.8192
09-Sep-2020 11:00:04.267,-0.0235, 1.0144, 0.0707, 0.0117, 0.0023, 0.0187,-2.8023,-1.5333, 1.8115
09-Sep-2020 11:00:04.277,-0.0223, 1.0111, 0.0635,-0.0053,-0.0251, 0.0078,-2.8102,-1.5335, 1.8041
09-Sep-2020 11:00:04.287,-0.0213, 1.0076, 0.0528,-0.0205,-0.0548, 0.0041,-2.8172,-1.5336, 1.7978
09-Sep-2020 11:00:04.296,-0.0185, 1.0030, 0.0411,-0.0314,-0.0764,-0.0014,-2.8240,-1.5335, 1.7920
09-Sep-2020 11:00:04.306,-0.0174, 0.9976, 0.0276,-0.0311,-0.0939,-0.0018,-2.8303,-1.5332, 1.7869
09-Sep-2020 11:00:04.316,-0.0186, 0.9915, 0.0180,-0.0224,-0.1169, 0.0026,-2.8361,-1.5330, 1.7824
09-Sep-2020 11:00:04.326,-0.0215, 0.9912, 0.0131,-0.0132,-0.1412, 0.0058,-2.8420,-1.5328, 1.7781
09-Sep-2020 11:00:04.336,-0.0242, 0.9908, 0.0164,-0.0041,-0.1594, 0.0081,-2.8478,-1.5328, 1.7741
09-Sep-2020 11:00:04.346,-0.0255, 0.9921, 0.0207, 0.0050,-0.1833, 0.0103,-2.8534,-1.5328, 1.7705
09-Sep-2020 11:00:04.356,-0.0236, 0.9961, 0.0216, 0.0067,-0.2104, 0.0105,-2.8590,-1.5328, 1.7671
09-Sep-2020 11:00:04.366,-0.0219, 1.0002, 0.0235, 0.0056,-0.2449, 0.0107,-2.8649,-1.5329, 1.7635
09-Sep-2020 11:00:04.376,-0.0186, 1.0038, 0.0266,-0.0038,-0.2727, 0.0069,-2.8712,-1.5331, 1.7599
09-Sep-2020 11:00:04.386,-0.0149, 1.0075, 0.0287,-0.0085,-0.3059, 0.0083,-2.8775,-1.5331, 1.7566
09-Sep-2020 11:00:04.396,-0.0120, 1.0087, 0.0293,-0.0229,-0.3333, 0.0059,-2.8846,-1.5331, 1.7527
09-Sep-2020 11:00:04.406,-0.0101, 1.0063, 0.0294,-0.0323,-0.3582, 0.0065,-2.8922,-1.5330, 1.7486
09-Sep-2020 11:00:04.416,-0.0099, 1.0020, 0.0266,-0.0404,-0.3740, 0.0032,-2.9004,-1.5328, 1.7441
09-Sep-2020 11:00:04.426,-0.0081, 0.9973, 0.0232,-0.0432,-0.3865,-0.0013,-2.9082,-1.5325, 1.7401
09-Sep-2020 11:00:04.436,-0.0045, 0.9914, 0.0198,-0.0485,-0.3823,-0.0134,-2.9149,-1.5321, 1.7374
09-Sep-2020 11:00:04.446, 0.0027, 0.9831, 0.0151,-0.0515,-0.3608,-0.0195,-2.9193,-1.5317, 1.7369
09-Sep-2020 11:00:04.456, 0.0115, 0.9791, 0.0110,-0.0487,-0.3318,-0.0235,-2.9218,-1.5313, 1.7380
09-Sep-2020 11:00:04.465, 0.0203, 0.9769, 0.0064,-0.0386,-0.2977,-0.0260,-2.9228,-1.5308, 1.7405
09-Sep-2020 11:00:04.476, 0.0295, 0.9769, 0.0059,-0.0294,-0.2579,-0.0229,-2.9232,-1.5304, 1.7431
09-Sep-2020 11:00:04.485, 0.0378, 0.9828, 0.0107,-0.0243,-0.2283,-0.0217,-2.9234,-1.5301, 1.7455
09-Sep-2020 11:00:04.496, 0.0411, 0.9920, 0.0184,-0.0182,-0.2059,-0.0157,-2.9237,-1.5299, 1.7477
09-Sep-2020 11:00:04.505, 0.0390, 0.9970, 0.0249,-0.0161,-0.2002,-0.0092,-2.9247,-1.5297, 1.7488
09-Sep-2020 11:00:04.516, 0.0347, 0.9987, 0.0274,-0.0175,-0.1997,-0.0018,-2.9270,-1.5296, 1.7486
09-Sep-2020 11:00:04.525, 0.0291, 0.9978, 0.0249,-0.0189,-0.2038, 0.0013,-2.9309,-1.5294, 1.7468
09-Sep-2020 11:00:04.535, 0.0254, 0.9976, 0.0196,-0.0186,-0.2105, 0.0012,-2.9358,-1.5293, 1.7440
09-Sep-2020 11:00:04.545, 0.0231, 0.9983, 0.0137,-0.0077,-0.2140, 0.0034,-2.9408,-1.5292, 1.7412
09-Sep-2020 11:00:04.555, 0.0202, 0.9952, 0.0153, 0.0016,-0.2102, 0.0067,-2.9459,-1.5292, 1.7383
09-Sep-2020 11:00:04.565, 0.0172, 0.9894, 0.0225, 0.0096,-0.2028, 0.0040,-2.9509,-1.5293, 1.7354
09-Sep-2020 11:00:04.575, 0.0180, 0.9890, 0.0329, 0.0088,-0.1948, 0.0054,-2.9552,-1.5294, 1.7333
09-Sep-2020 11:00:04.585, 0.0234, 0.9922, 0.0441, 0.0069,-0.1781, 0.0039,-2.9594,-1.5296, 1.7310
09-Sep-2020 11:00:04.595, 0.0248, 0.9978, 0.0577,-0.0066,-0.1575, 0.0019,-2.9649,-1.5297, 1.7274
09-Sep-2020 11:00:04.605, 0.0240, 1.0065, 0.0648,-0.0255,-0.1434, 0.0017,-2.9702,-1.5297, 1.7237
09-Sep-2020 11:00:04.615, 0.0234, 1.0124, 0.0626,-0.0436,-0.1372, 0.0023,-2.9759,-1.5296, 1.7196
09-Sep-2020 11:00:04.625, 0.0211, 1.0143, 0.0516,-0.0562,-0.1444, 0.0038,-2.9821,-1.5292, 1.7148
09-Sep-2020 11:00:04.635, 0.0166, 1.0097, 0.0371,-0.0671,-0.1586, 0.0090,-2.9891,-1.5288, 1.7093
09-Sep-2020 11:00:04.645, 0.0141, 1.0035, 0.0236,-0.0645,-0.1716, 0.0106,-2.9975,-1.5282, 1.7026
09-Sep-2020 11:00:04.655, 0.0141, 0.9980, 0.0168,-0.0580,-0.1913, 0.0132,-3.0063,-1.5277, 1.6956
09-Sep-2020 11:00:04.665, 0.0181, 0.9936, 0.0181,-0.0462,-0.1979, 0.0174,-3.0153,-1.5272, 1.6886
09-Sep-2020 11:00:04.674, 0.0225, 0.9921, 0.0226,-0.0351,-0.1948, 0.0198,-3.0247,-1.5269, 1.6812
09-Sep-2020 11:00:04.684, 0.0249, 0.9921, 0.0292,-0.0301,-0.1869, 0.0198,-3.0343,-1.5266, 1.6736
09-Sep-2020 11:00:04.694, 0.0235, 0.9965, 0.0309,-0.0261,-0.1765, 0.0190,-3.0437,-1.5264, 1.6661
09-Sep-2020 11:00:04.705, 0.0197, 0.9995, 0.0273,-0.0232,-0.1668, 0.0179,-3.0527,-1.5261, 1.6589
09-Sep-2020 11:00:04.715, 0.0137, 1.0018, 0.0247,-0.0218,-0.1648, 0.0170,-3.0613,-1.5260, 1.6521
09-Sep-2020 11:00:04.725, 0.0094, 1.0005, 0.0234,-0.0241,-0.1616, 0.0129,-3.0694,-1.5258, 1.6457
09-Sep-2020 11:00:04.734, 0.0066, 0.9970, 0.0244,-0.0265,-0.1632, 0.0112,-3.0766,-1.5256, 1.6402
09-Sep-2020 11:00:04.745, 0.0054, 0.9957, 0.0279,-0.0273,-0.1652, 0.0116,-3.0831,-1.5254, 1.6353
09-Sep-2020 11:00:04.754, 0.0060, 0.9953, 0.0316,-0.0284,-0.1708, 0.0103,-3.0896,-1.5253, 1.6306
09-Sep-2020 11:00:04.764, 0.0084, 0.9974, 0.0359,-0.0273,-0.1741, 0.0099,-3.0960,-1.5251, 1.6259
09-Sep-2020 11:00:04.774, 0.0130, 1.0012, 0.0405,-0.0323,-0.1825, 0.0145,-3.1028,-1.5249, 1.6210
09-Sep-2020 11:00:04.784, 0.0169, 1.0049, 0.0385,-0.0429,-0.1870, 0.0135,-3.1102,-1.5246, 1.6154
09-Sep-2020 11:00:04.794, 0.0198, 1.0044, 0.0358,-0.0498,-0.1975, 0.0163,-3.1175,-1.5243, 1.6101
09-Sep-2020 11:00:04.804, 0.0208, 1.0027, 0.0304,-0.0537,-0.2190, 0.0204,-3.1253,-1.5238, 1.6043
09-Sep-2020 11:00:04.814, 0.0194, 1.0012, 0.0261,-0.0506,-0.2461, 0.0230,-3.1338,-1.5234, 1.5981
09-Sep-2020 11:00:04.824, 0.0159, 0.9991, 0.0246,-0.0469,-0.2743, 0.0259, 3.1403,-1.5230, 1.5915
09-Sep-2020 11:00:04.834, 0.0108, 0.9963, 0.0271,-0.0406,-0.3106, 0.0286, 3.1305,-1.5226, 1.5845
09-Sep-2020 11:00:04.844, 0.0075, 0.9918, 0.0309,-0.0361,-0.3443, 0.0300, 3.1200,-1.5222, 1.5771
09-Sep-2020 11:00:04.854, 0.0050, 0.9850, 0.0379,-0.0399,-0.3650, 0.0356, 3.1088,-1.5219, 1.5695
09-Sep-2020 11:00:04.864, 0.0045, 0.9810, 0.0435,-0.0434,-0.3724, 0.0358, 3.0968,-1.5215, 1.5611
09-Sep-2020 11:00:04.874, 0.0065, 0.9862, 0.0448,-0.0447,-0.3734, 0.0329, 3.0847,-1.5212, 1.5527
09-Sep-2020 11:00:04.884, 0.0103, 0.9944, 0.0477,-0.0510,-0.3643, 0.0264, 3.0731,-1.5207, 1.5449
09-Sep-2020 11:00:04.894, 0.0160, 1.0022, 0.0526,-0.0575,-0.3469, 0.0243, 3.0627,-1.5203, 1.5382
09-Sep-2020 11:00:04.904, 0.0218, 1.0053, 0.0560,-0.0658,-0.3275, 0.0222, 3.0536,-1.5197, 1.5327
09-Sep-2020 11:00:04.914, 0.0262, 1.0048, 0.0554,-0.0711,-0.3083, 0.0223, 3.0456,-1.5191, 1.5279
09-Sep-2020 11:00:04.923, 0.0309, 1.0055, 0.0515,-0.0750,-0.2888, 0.0220, 3.0382,-1.5184, 1.5237
09-Sep-2020 11:00:04.934, 0.0334, 1.0028, 0.0459,-0.0754,-0.2741, 0.0212, 3.0312,-1.5177, 1.5196
09-Sep-2020 11:00:04.944, 0.0366, 0.9993, 0.0424,-0.0726,-0.2749, 0.0202, 3.0245,-1.5169, 1.5157
09-Sep-2020 11:00:04.954, 0.0396, 0.9952, 0.0412,-0.0713,-0.2738, 0.0167, 3.0183,-1.5162, 1.5123
09-Sep-2020 11:00:04.963, 0.0447, 0.9905, 0.0452,-0.0709,-0.2712, 0.0181, 3.0127,-1.5155, 1.5095
09-Sep-2020 11:00:04.974, 0.0498, 0.9889, 0.0456,-0.0665,-0.2686, 0.0131, 3.0072,-1.5148, 1.5067
09-Sep-2020 11:00:04.983, 0.0540, 0.9896, 0.0483,-0.0647,-0.2599, 0.0047, 3.0027,-1.5142, 1.5049
09-Sep-2020 11:00:04.993, 0.0626, 0.9916, 0.0519,-0.0624,-0.2445, 0.0051, 2.9992,-1.5135, 1.5041
09-Sep-2020 11:00:05.003, 0.0687, 0.9961, 0.0546,-0.0620,-0.2236, 0.0086, 2.9959,-1.5130, 1.5033
09-Sep-2020 11:00:05.013, 0.0735, 0.9972, 0.0572,-0.0649,-0.1953, 0.0067, 2.9927,-1.5124, 1.5024
09-Sep-2020 11:00:05.023, 0.0755, 0.9962, 0.0561,-0.0573,-0.1615, 0.0047, 2.9900,-1.5118, 1.5016
09-Sep-2020 11:00:05.033, 0.0776, 0.9924, 0.0544,-0.0534,-0.1220, 0.0016, 2.9877,-1.5112, 1.5010
09-Sep-2020 11:00:05.043, 0.0772, 0.9871, 0.0509,-0.0431,-0.0729,-0.0002, 2.9863,-1.5107, 1.5009
09-Sep-2020 11:00:05.053, 0.0746, 0.9848, 0.0476,-0.0337,-0.0221, 0.0012, 2.9855,-1.5103, 1.5008
09-Sep-2020 11:00:05.063, 0.0717, 0.9841, 0.0457,-0.0238, 0.0237,-0.0007, 2.9836,-1.5100, 1.4993
09-Sep-2020 11:00:05.073, 0.0685, 0.9875, 0.0474,-0.0152, 0.0650, 0.0007, 2.9821,-1.5098, 1.4976
09-Sep-2020 11:00:05.083, 0.0643, 0.9932, 0.0522,-0.0106, 0.0902, 0.0050, 2.9805,-1.5097, 1.4954
09-Sep-2020 11:00:05.093, 0.0592, 0.9978, 0.0558,-0.0114, 0.0935, 0.0097, 2.9783,-1.5096, 1.4924
09-Sep-2020 11:00:05.102, 0.0542, 1.0009, 0.0580,-0.0160, 0.0883, 0.0132, 2.9755,-1.5095, 1.4887
09-Sep-2020 11:00:05.113, 0.0492, 1.0016, 0.0578,-0.0196, 0.0731, 0.0249, 2.9720,-1.5094, 1.4844
09-Sep-2020 11:00:05.122, 0.0433, 1.0011, 0.0547,-0.0211, 0.0502, 0.0282, 2.9668,-1.5092, 1.4785
09-Sep-2020 11:00:05.132, 0.0369, 1.0007, 0.0506,-0.0232, 0.0283, 0.0318, 2.9605,-1.5089, 1.4718
09-Sep-2020 11:00:05.143, 0.0319, 0.9998, 0.0492,-0.0246, 0.0050, 0.0350, 2.9536,-1.5087, 1.4647
09-Sep-2020 11:00:05.152, 0.0280, 0.9990, 0.0503,-0.0253,-0.0159, 0.0365, 2.9464,-1.5084, 1.4574
09-Sep-2020 11:00:05.162, 0.0243, 0.9965, 0.0534,-0.0277,-0.0281, 0.0398, 2.9387,-1.5081, 1.4500
09-Sep-2020 11:00:05.172, 0.0212, 0.9935, 0.0579,-0.0280,-0.0364, 0.0413, 2.9307,-1.5078, 1.4423
09-Sep-2020 11:00:05.182, 0.0166, 0.9904, 0.0610,-0.0340,-0.0469, 0.0451, 2.9226,-1.5075, 1.4346
09-Sep-2020 11:00:05.192, 0.0124, 0.9890, 0.0645,-0.0358,-0.0502, 0.0498, 2.9142,-1.5071, 1.4267
09-Sep-2020 11:00:05.203, 0.0087, 0.9912, 0.0663,-0.0376,-0.0529, 0.0530, 2.9055,-1.5066, 1.4185
09-Sep-2020 11:00:05.212, 0.0034, 0.9952, 0.0673,-0.0473,-0.0680, 0.0537, 2.8965,-1.5061, 1.4101
09-Sep-2020 11:00:05.222,-0.0014, 1.0003, 0.0652,-0.0508,-0.0921, 0.0527, 2.8877,-1.5056, 1.4020
09-Sep-2020 11:00:05.232,-0.0061, 1.0028, 0.0615,-0.0647,-0.1188, 0.0461, 2.8794,-1.5050, 1.3947
09-Sep-2020 11:00:05.242,-0.0092, 1.0026, 0.0578,-0.0705,-0.1452, 0.0410, 2.8724,-1.5043, 1.3889
09-Sep-2020 11:00:05.252,-0.0098, 1.0002, 0.0552,-0.0724,-0.1678, 0.0286, 2.8664,-1.5035, 1.3844
09-Sep-2020 11:00:05.262,-0.0069, 0.9993, 0.0555,-0.0665,-0.1812, 0.0173, 2.8623,-1.5028, 1.3820
09-Sep-2020 11:00:05.272,-0.0007, 0.9949, 0.0589,-0.0575,-0.1830, 0.0031, 2.8596,-1.5021, 1.3812
09-Sep-2020 11:00:05.282, 0.0085, 0.9922, 0.0630,-0.0505,-0.1807,-0.0133, 2.8586,-1.5016, 1.3820
09-Sep-2020 11:00:05.292, 0.0161, 0.9902, 0.0653,-0.0501,-0.1702,-0.0195, 2.8594,-1.5012, 1.3846
09-Sep-2020 11:00:05.302, 0.0229, 0.9891, 0.0648,-0.0491,-0.1518,-0.0267, 2.8614,-1.5008, 1.3884
09-Sep-2020 11:00:05.312, 0.0302, 0.9894, 0.0639,-0.0440,-0.1310,-0.0347, 2.8646,-1.5004, 1.3932
09-Sep-2020 11:00:05.322, 0.0375, 0.9915, 0.0638,-0.0354,-0.1134,-0.0376, 2.8688,-1.5001, 1.3988
09-Sep-2020 11:00:05.331, 0.0433, 0.9927, 0.0665,-0.0320,-0.0916,-0.0383, 2.8733,-1.5000, 1.4045
09-Sep-2020 11:00:05.342, 0.0485, 0.9932, 0.0686,-0.0279,-0.0661,-0.0419, 2.8780,-1.4998, 1.4101
09-Sep-2020 11:00:05.351, 0.0519, 0.9929, 0.0704,-0.0268,-0.0525,-0.0442, 2.8833,-1.4997, 1.4161
09-Sep-2020 11:00:05.361, 0.0550, 0.9921, 0.0707,-0.0239,-0.0449,-0.0447, 2.8890,-1.4996, 1.4224
09-Sep-2020 11:00:05.371, 0.0579, 0.9927, 0.0735,-0.0168,-0.0373,-0.0472, 2.8946,-1.4995, 1.4285
09-Sep-2020 11:00:05.382, 0.0609, 0.9958, 0.0779,-0.0119,-0.0294,-0.0546, 2.9003,-1.4995, 1.4346
09-Sep-2020 11:00:05.391, 0.0649, 0.9978, 0.0818,-0.0107,-0.0279,-0.0587, 2.9065,-1.4995, 1.4412
09-Sep-2020 11:00:05.401, 0.0666, 1.0026, 0.0825,-0.0102,-0.0223,-0.0599, 2.9131,-1.4996, 1.4481
09-Sep-2020 11:00:05.411, 0.0676, 1.0020, 0.0820,-0.0189,-0.0202,-0.0579, 2.9198,-1.4996, 1.4551
09-Sep-2020 11:00:05.421, 0.0677, 0.9991, 0.0794,-0.0314,-0.0248,-0.0586, 2.9265,-1.4996, 1.4621
09-Sep-2020 11:00:05.431, 0.0653, 0.9949, 0.0738,-0.0353,-0.0242,-0.0541, 2.9332,-1.4994, 1.4691
09-Sep-2020 11:00:05.441, 0.0634, 0.9881, 0.0695,-0.0355,-0.0155,-0.0504, 2.9393,-1.4992, 1.4755
09-Sep-2020 11:00:05.451, 0.0646, 0.9833, 0.0656,-0.0309,-0.0130,-0.0444, 2.9449,-1.4990, 1.4813
09-Sep-2020 11:00:05.461, 0.0657, 0.9800, 0.0624,-0.0239,-0.0050,-0.0368, 2.9497,-1.4988, 1.4863
09-Sep-2020 11:00:05.471, 0.0656, 0.9813, 0.0618,-0.0201, 0.0131,-0.0292, 2.9533,-1.4987, 1.4901
09-Sep-2020 11:00:05.481, 0.0627, 0.9817, 0.0611,-0.0170, 0.0410,-0.0155, 2.9558,-1.4985, 1.4925
09-Sep-2020 11:00:05.491, 0.0555, 0.9816, 0.0610,-0.0134, 0.0802,-0.0137, 2.9569,-1.4984, 1.4932
09-Sep-2020 11:00:05.501, 0.0493, 0.9840, 0.0556,-0.0052, 0.1202,-0.0089, 2.9578,-1.4983, 1.4934
09-Sep-2020 11:00:05.511, 0.0395, 0.9864, 0.0497, 0.0044, 0.1522,-0.0074, 2.9584,-1.4983, 1.4928
09-Sep-2020 11:00:05.521, 0.0288, 0.9891, 0.0424, 0.0175, 0.1688,-0.0056, 2.9588,-1.4983, 1.4917
09-Sep-2020 11:00:05.531, 0.0173, 0.9895, 0.0424, 0.0274, 0.1662,-0.0047, 2.9588,-1.4985, 1.4901
09-Sep-2020 11:00:05.541, 0.0077, 0.9888, 0.0493, 0.0308, 0.1559,-0.0062, 2.9584,-1.4988, 1.4881
09-Sep-2020 11:00:05.550, 0.0002, 0.9899, 0.0570, 0.0263, 0.1477,-0.0044, 2.9579,-1.4992, 1.4861
09-Sep-2020 11:00:05.560,-0.0072, 0.9957, 0.0598, 0.0143, 0.1326,-0.0010, 2.9571,-1.4994, 1.4839
09-Sep-2020 11:00:05.571,-0.0144, 1.0017, 0.0581, 0.0081, 0.1037, 0.0023, 2.9561,-1.4996, 1.4816
09-Sep-2020 11:00:05.580,-0.0233, 1.0033, 0.0534,-0.0066, 0.0658, 0.0072, 2.9547,-1.4997, 1.4792
09-Sep-2020 11:00:05.590,-0.0353, 1.0021, 0.0432,-0.0140,-0.0099, 0.0122, 2.9528,-1.4997, 1.4767
09-Sep-2020 11:00:05.600,-0.0468, 1.0025, 0.0339,-0.0211,-0.1094, 0.0091, 2.9498,-1.4995, 1.4739
09-Sep-2020 11:00:05.610,-0.0553, 1.0028, 0.0343,-0.0268,-0.2118, 0.0064, 2.9464,-1.4993, 1.4717
09-Sep-2020 11:00:05.620,-0.0602, 1.0009, 0.0400,-0.0283,-0.2985,-0.0100, 2.9429,-1.4991, 1.4703
09-Sep-2020 11:00:05.630,-0.0572, 1.0009, 0.0467,-0.0314,-0.3619,-0.0220, 2.9407,-1.4989, 1.4711
09-Sep-2020 11:00:05.640,-0.0481, 0.9985, 0.0538,-0.0325,-0.4045,-0.0444, 2.9402,-1.4987, 1.4742
09-Sep-2020 11:00:05.650,-0.0340, 0.9943, 0.0619,-0.0375,-0.4243,-0.0656, 2.9421,-1.4985, 1.4802
09-Sep-2020 11:00:05.660,-0.0160, 0.9924, 0.0653,-0.0439,-0.4242,-0.0739, 2.9467,-1.4983, 1.4891
09-Sep-2020 11:00:05.670, 0.0007, 0.9917, 0.0659,-0.0484,-0.4164,-0.0826, 2.9531,-1.4981, 1.4998
09-Sep-2020 11:00:05.680, 0.0159, 0.9919, 0.0650,-0.0472,-0.4140,-0.0846, 2.9606,-1.4978, 1.5115
09-Sep-2020 11:00:05.690, 0.0274, 0.9936, 0.0667,-0.0494,-0.4126,-0.0781, 2.9684,-1.4976, 1.5235
09-Sep-2020 11:00:05.700, 0.0352, 0.9973, 0.0691,-0.0546,-0.4224,-0.0645, 2.9757,-1.4973, 1.5349
09-Sep-2020 11:00:05.710, 0.0409, 1.0047, 0.0750,-0.0564,-0.4495,-0.0526, 2.9802,-1.4969, 1.5438
09-Sep-2020 11:00:05.720, 0.0470, 1.0095, 0.0816,-0.0646,-0.4807,-0.0372, 2.9829,-1.4964, 1.5510
09-Sep-2020 11:00:05.729, 0.0520, 1.0137, 0.0850,-0.0735,-0.5172,-0.0195, 2.9833,-1.4959, 1.5562
09-Sep-2020 11:00:05.740, 0.0561, 1.0126, 0.0840,-0.0846,-0.5688,-0.0100, 2.9813,-1.4952, 1.5594
09-Sep-2020 11:00:05.749, 0.0578, 1.0086, 0.0819,-0.0931,-0.6252,-0.0005, 2.9776,-1.4944, 1.5614
09-Sep-2020 11:00:05.760, 0.0620, 1.0048, 0.0794,-0.0964,-0.6750, 0.0042, 2.9724,-1.4935, 1.5625
09-Sep-2020 11:00:05.770, 0.0688, 0.9987, 0.0772,-0.0914,-0.7099, 0.0080, 2.9661,-1.4926, 1.5629
09-Sep-2020 11:00:05.779, 0.0738, 0.9920, 0.0757,-0.0920,-0.7150, 0.0090, 2.9590,-1.4917, 1.5629
09-Sep-2020 11:00:05.789, 0.0759, 0.9928, 0.0791,-0.0893,-0.6798, 0.0038, 2.9519,-1.4908, 1.5629
09-Sep-2020 11:00:05.800, 0.0761, 0.9964, 0.0833,-0.0784,-0.5965,-0.0176, 2.9461,-1.4900, 1.5638
09-Sep-2020 11:00:05.809, 0.0749, 0.9901, 0.0838,-0.0659,-0.4930,-0.0422, 2.9432,-1.4893, 1.5669
09-Sep-2020 11:00:05.819, 0.0827, 0.9779, 0.0830,-0.0533,-0.3898,-0.0679, 2.9439,-1.4887, 1.5726
09-Sep-2020 11:00:05.829, 0.0908, 0.9690, 0.0824,-0.0429,-0.2834,-0.0730, 2.9483,-1.4883, 1.5808
09-Sep-2020 11:00:05.839, 0.0912, 0.9686, 0.0768,-0.0312,-0.1935,-0.0815, 2.9542,-1.4881, 1.5896
09-Sep-2020 11:00:05.849, 0.0940, 0.9673, 0.0746,-0.0223,-0.1127,-0.0870, 2.9614,-1.4880, 1.5988
09-Sep-2020 11:00:05.859, 0.0951, 0.9700, 0.0720,-0.0129,-0.0553,-0.1003, 2.9700,-1.4879, 1.6087
09-Sep-2020 11:00:05.869, 0.0968, 0.9731, 0.0732,-0.0022,-0.0111,-0.1037, 2.9805,-1.4880, 1.6197
09-Sep-2020 11:00:05.879, 0.0957, 0.9827, 0.0777, 0.0006, 0.0442,-0.1166, 2.9920,-1.4882, 1.6314
09-Sep-2020 11:00:05.889, 0.0918, 0.9964, 0.0752, 0.0228, 0.0893,-0.1331, 3.0054,-1.4884, 1.6445
09-Sep-2020 11:00:05.899, 0.0875, 0.9997, 0.0754, 0.0408, 0.1306,-0.1337, 3.0208,-1.4888, 1.6590
09-Sep-2020 11:00:05.909, 0.0869, 0.9932, 0.0739, 0.0444, 0.1641,-0.1349, 3.0366,-1.4893, 1.6737
09-Sep-2020 11:00:05.919, 0.0863, 0.9843, 0.0703, 0.0432, 0.2147,-0.1253, 3.0529,-1.4899, 1.6884
09-Sep-2020 11:00:05.928, 0.0800, 0.9818, 0.0664, 0.0443, 0.2507,-0.1120, 3.0690,-1.4905, 1.7023
09-Sep-2020 11:00:05.939, 0.0681, 0.9842, 0.0713, 0.0470, 0.2864,-0.0941, 3.0841,-1.4911, 1.7150
09-Sep-2020 11:00:05.948, 0.0544, 0.9905, 0.0770, 0.0456, 0.3062,-0.0781, 3.0976,-1.4916, 1.7257
09-Sep-2020 11:00:05.958, 0.0404, 0.9952, 0.0807, 0.0372, 0.2829,-0.0674, 3.1093,-1.4921, 1.7345
09-Sep-2020 11:00:05.968, 0.0331, 1.0014, 0.0824, 0.0295, 0.2426,-0.0525, 3.1181,-1.4925, 1.7405
09-Sep-2020 11:00:05.979, 0.0221, 1.0069, 0.0798, 0.0144, 0.1863,-0.0523, 3.1250,-1.4929, 1.7450
09-Sep-2020 11:00:05.988, 0.0163, 1.0097, 0.0763, 0.0040, 0.1424,-0.0505, 3.1311,-1.4931, 1.7493
09-Sep-2020 11:00:05.998, 0.0131, 1.0063, 0.0702,-0.0040, 0.1148,-0.0448, 3.1366,-1.4932, 1.7534
09-Sep-2020 11:00:06.008, 0.0081, 1.0028, 0.0610, 0.0063, 0.1074,-0.0496, 3.1413,-1.4932, 1.7570
09-Sep-2020 11:00:06.018, 0.0063, 0.9943, 0.0586, 0.0191, 0.1194,-0.0532,-3.1367,-1.4933, 1.7612
09-Sep-2020 11:00:06.028, 0.0056, 0.9912, 0.0611, 0.0328, 0.1464,-0.0523,-3.1309,-1.4936, 1.7658
09-Sep-2020 11:00:06.038, 0.0023, 0.9916, 0.0688, 0.0334, 0.1925,-0.0540,-3.1247,-1.4939, 1.7706
09-Sep-2020 11:00:06.048,-0.0006, 0.9915, 0.0798, 0.0281, 0.2416,-0.0581,-3.1174,-1.4943, 1.7760
09-Sep-2020 11:00:06.058,-0.0019, 0.9975, 0.0836, 0.0164, 0.2835,-0.0615,-3.1089,-1.4946, 1.7822
09-Sep-2020 11:00:06.068,-0.0039, 1.0025, 0.0821,-0.0024, 0.3045,-0.0670,-3.0995,-1.4948, 1.7889
09-Sep-2020 11:00:06.078,-0.0056, 1.0056, 0.0754,-0.0219, 0.2962,-0.0690,-3.0892,-1.4947, 1.7962
09-Sep-2020 11:00:06.088,-0.0036, 1.0078, 0.0667,-0.0332, 0.2803,-0.0803,-3.0785,-1.4945, 1.8040
09-Sep-2020 11:00:06.098, 0.0028, 1.0010, 0.0549,-0.0394, 0.2577,-0.0797,-3.0669,-1.4942, 1.8129
09-Sep-2020 11:00:06.108, 0.0087, 0.9968, 0.0405,-0.0325, 0.2124,-0.0769,-3.0554,-1.4938, 1.8218
09-Sep-2020 11:00:06.118, 0.0145, 0.9924, 0.0272,-0.0199, 0.1519,-0.0759,-3.0449,-1.4935, 1.8303
09-Sep-2020 11:00:06.128, 0.0210, 0.9883, 0.0258, 0.0062, 0.0908,-0.0725,-3.0350,-1.4933, 1.8387
09-Sep-2020 11:00:06.138, 0.0270, 0.9869, 0.0391, 0.0243, 0.0433,-0.0666,-3.0258,-1.4934, 1.8470
09-Sep-2020 11:00:06.148, 0.0327, 0.9885, 0.0574, 0.0314, 0.0313,-0.0592,-3.0175,-1.4936, 1.8550
09-Sep-2020 11:00:06.158, 0.0317, 0.9953, 0.0750, 0.0281, 0.0480,-0.0549,-3.0101,-1.4938, 1.8621
09-Sep-2020 11:00:06.168, 0.0261, 0.9961, 0.0864, 0.0152, 0.0803,-0.0610,-3.0030,-1.4941, 1.8687
09-Sep-2020 11:00:06.177, 0.0204, 0.9956, 0.0862,-0.0015, 0.1052,-0.0616,-2.9952,-1.4942, 1.8758
09-Sep-2020 11:00:06.187, 0.0153, 0.9957, 0.0766,-0.0071, 0.1188,-0.0732,-2.9871,-1.4942, 1.8829
09-Sep-2020 11:00:06.197, 0.0154, 0.9968, 0.0718,-0.0084, 0.1239,-0.0802,-2.9778,-1.4941, 1.8911
09-Sep-2020 11:00:06.207, 0.0198, 0.9955, 0.0717,-0.0111, 0.1238,-0.0883,-2.9677,-1.4940, 1.9001
09-Sep-2020 11:00:06.217, 0.0246, 0.9967, 0.0755,-0.0139, 0.1236,-0.0969,-2.9568,-1.4938, 1.9098
09-Sep-2020 11:00:06.227, 0.0315, 0.9945, 0.0806,-0.0230, 0.1317,-0.0972,-2.9452,-1.4936, 1.9202
09-Sep-2020 11:00:06.237, 0.0345, 0.9980, 0.0802,-0.0302, 0.1363,-0.0990,-2.9336,-1.4933, 1.9306
09-Sep-2020 11:00:06.247, 0.0338, 0.9986, 0.0794,-0.0328, 0.1437,-0.1005,-2.9220,-1.4929, 1.9409
09-Sep-2020 11:00:06.257, 0.0314, 1.0008, 0.0744,-0.0234, 0.1559,-0.1047,-2.9105,-1.4925, 1.9510
09-Sep-2020 11:00:06.267, 0.0247, 1.0018, 0.0640,-0.0148, 0.1601,-0.1035,-2.8984,-1.4920, 1.9616
09-Sep-2020 11:00:06.277, 0.0148, 1.0024, 0.0550, 0.0037, 0.1668,-0.1024,-2.8861,-1.4917, 1.9724
09-Sep-2020 11:00:06.287, 0.0036, 0.9985, 0.0511, 0.0188, 0.1604,-0.0984,-2.8732,-1.4915, 1.9836
09-Sep-2020 11:00:06.297,-0.0063, 0.9929, 0.0549, 0.0298, 0.1599,-0.0938,-2.8604,-1.4915, 1.9949
09-Sep-2020 11:00:06.307,-0.0123, 0.9885, 0.0620, 0.0257, 0.1509,-0.0918,-2.8478,-1.4916, 2.0060
09-Sep-2020 11:00:06.317,-0.0149, 0.9849, 0.0715, 0.0206, 0.1516,-0.0863,-2.8359,-1.4917, 2.0165
09-Sep-2020 11:00:06.327,-0.0182, 0.9913, 0.0785, 0.0098, 0.1639,-0.0796,-2.8250,-1.4917, 2.0259
09-Sep-2020 11:00:06.337,-0.0238, 0.9979, 0.0818,-0.0010, 0.1647,-0.0693,-2.8152,-1.4916, 2.0342
09-Sep-2020 11:00:06.346,-0.0353, 1.0088, 0.0777,-0.0132, 0.1583,-0.0623,-2.8068,-1.4914, 2.0410
09-Sep-2020 11:00:06.357,-0.0475, 1.0188, 0.0618,-0.0243, 0.1222,-0.0635,-2.7998,-1.4912, 2.0465
09-Sep-2020 11:00:06.366,-0.0551, 1.0248, 0.0387,-0.0305, 0.0693,-0.0693,-2.7934,-1.4909, 2.0517
09-Sep-2020 11:00:06.376,-0.0605, 1.0181, 0.0248,-0.0321, 0.0053,-0.0760,-2.7871,-1.4905, 2.0574
09-Sep-2020 11:00:06.386,-0.0634, 1.0018, 0.0228,-0.0258,-0.0453,-0.0791,-2.7805,-1.4900, 2.0640
09-Sep-2020 11:00:06.396,-0.0660, 0.9853, 0.0304,-0.0220,-0.0761,-0.0819,-2.7739,-1.4896, 2.0711
09-Sep-2020 11:00:06.406,-0.0678, 0.9706, 0.0478,-0.0199,-0.0871,-0.0882,-2.7672,-1.4892, 2.0786
09-Sep-2020 11:00:06.416,-0.0659, 0.9650, 0.0623,-0.0184,-0.0813,-0.0944,-2.7599,-1.4888, 2.0869
09-Sep-2020 11:00:06.426,-0.0625, 0.9634, 0.0756,-0.0173,-0.0657,-0.1019,-2.7517,-1.4883, 2.0959
09-Sep-2020 11:00:06.436,-0.0574, 0.9679, 0.0824,-0.0180,-0.0523,-0.1016,-2.7426,-1.4878, 2.1057
09-Sep-2020 11:00:06.446,-0.0560, 0.9853, 0.0843,-0.0144,-0.0420,-0.0939,-2.7335,-1.4873, 2.1154
09-Sep-2020 11:00:06.456,-0.0598, 1.0050, 0.0802,-0.0166,-0.0469,-0.0906,-2.7248,-1.4869, 2.1246
09-Sep-2020 11:00:06.466,-0.0603, 1.0123, 0.0720,-0.0276,-0.0770,-0.0976,-2.7162,-1.4865, 2.1337
09-Sep-2020 11:00:06.476,-0.0568, 1.0095, 0.0578,-0.0356,-0.1200,-0.1128,-2.7077,-1.4860, 2.1431
09-Sep-2020 11:00:06.486,-0.0482, 1.0048, 0.0505,-0.0419,-0.1586,-0.1301,-2.6987,-1.4853, 2.1533
09-Sep-2020 11:00:06.496,-0.0397, 0.9976, 0.0527,-0.0370,-0.1658,-0.1416,-2.6889,-1.4844, 2.1648
09-Sep-2020 11:00:06.506,-0.0288, 0.9835, 0.0624,-0.0336,-0.1425,-0.1447,-2.6780,-1.4836, 2.1774
09-Sep-2020 11:00:06.516,-0.0190, 0.9783, 0.0704,-0.0344,-0.1055,-0.1461,-2.6667,-1.4827, 2.1902
09-Sep-2020 11:00:06.526,-0.0135, 0.9783, 0.0766,-0.0359,-0.0653,-0.1443,-2.6553,-1.4817, 2.2026
09-Sep-2020 11:00:06.536,-0.0094, 0.9820, 0.0816,-0.0375,-0.0344,-0.1391,-2.6442,-1.4808, 2.2145
09-Sep-2020 11:00:06.546,-0.0088, 0.9908, 0.0838,-0.0339,-0.0052,-0.1416,-2.6334,-1.4799, 2.2257
09-Sep-2020 11:00:06.555,-0.0114, 0.9989, 0.0876,-0.0319, 0.0106,-0.1459,-2.6222,-1.4790, 2.2370
09-Sep-2020 11:00:06.565,-0.0153, 1.0033, 0.0926,-0.0303, 0.0266,-0.1437,-2.6104,-1.4780, 2.2487
09-Sep-2020 11:00:06.575,-0.0164, 1.0092, 0.0948,-0.0299, 0.0445,-0.1444,-2.5988,-1.4771, 2.2602
09-Sep-2020 11:00:06.586,-0.0185, 1.0127, 0.0927,-0.0288, 0.0648,-0.1406,-2.5874,-1.4763, 2.2712
09-Sep-2020 11:00:06.596,-0.0221, 1.0110, 0.0873,-0.0284, 0.0706,-0.1440,-2.5763,-1.4754, 2.2818
09-Sep-2020 11:00:06.605,-0.0271, 1.0088, 0.0810,-0.0273, 0.0754,-0.1479,-2.5652,-1.4745, 2.2922
09-Sep-2020 11:00:06.615,-0.0307, 1.0032, 0.0751,-0.0240, 0.0745,-0.1509,-2.5540,-1.4736, 2.3027
09-Sep-2020 11:00:06.625,-0.0326, 0.9972, 0.0712,-0.0208, 0.0699,-0.1494,-2.5428,-1.4727, 2.3134
09-Sep-2020 11:00:06.635,-0.0378, 0.9928, 0.0681,-0.0189, 0.0573,-0.1498,-2.5317,-1.4717, 2.3238
09-Sep-2020 11:00:06.645,-0.0425, 0.9876, 0.0707,-0.0158, 0.0449,-0.1415,-2.5210,-1.4708, 2.3341
09-Sep-2020 11:00:06.655,-0.0471, 0.9831, 0.0754,-0.0170, 0.0357,-0.1328,-2.5110,-1.4700, 2.3437
09-Sep-2020 11:00:06.665,-0.0551, 0.9817, 0.0817,-0.0135, 0.0274,-0.1276,-2.5018,-1.4691, 2.3525
09-Sep-2020 11:00:06.675,-0.0605, 0.9798, 0.0881,-0.0046, 0.0187,-0.1220,-2.4932,-1.4684, 2.3609
09-Sep-2020 11:00:06.685,-0.0630, 0.9830, 0.0931,-0.0033,-0.0091,-0.1171,-2.4848,-1.4677, 2.3692
09-Sep-2020 11:00:06.695,-0.0689, 0.9912, 0.0990,-0.0076,-0.0325,-0.1150,-2.4770,-1.4671, 2.3772
09-Sep-2020 11:00:06.705,-0.0734, 0.9974, 0.1053,-0.0123,-0.0461,-0.1163,-2.4698,-1.4664, 2.3848
09-Sep-2020 11:00:06.715,-0.0773, 1.0026, 0.1047,-0.0242,-0.0557,-0.1167,-2.4630,-1.4657, 2.3921
09-Sep-2020 11:00:06.725,-0.0763, 1.0017, 0.1019,-0.0332,-0.0537,-0.1117,-2.4569,-1.4649, 2.3988
09-Sep-2020 11:00:06.735,-0.0766, 1.0060, 0.0970,-0.0393,-0.0622,-0.1097,-2.4518,-1.4640, 2.4046
09-Sep-2020 11:00:06.745,-0.0792, 1.0089, 0.0944,-0.0379,-0.0611,-0.1185,-2.4472,-1.4631, 2.4098
09-Sep-2020 11:00:06.754,-0.0767, 1.0017, 0.0967,-0.0437,-0.0563,-0.1277,-2.4422,-1.4622, 2.4155
09-Sep-2020 11:00:06.765,-0.0738, 0.9988, 0.0952,-0.0436,-0.0494,-0.1412,-2.4367,-1.4611, 2.4216
09-Sep-2020 11:00:06.774,-0.0696, 0.9949, 0.0950,-0.0391,-0.0420,-0.1443,-2.4305,-1.4600, 2.4283
09-Sep-2020 11:00:06.784,-0.0648, 0.9903, 0.0913,-0.0380,-0.0398,-0.1405,-2.4239,-1.4588, 2.4354
09-Sep-2020 11:00:06.794,-0.0677, 0.9900, 0.0857,-0.0333,-0.0335,-0.1407,-2.4175,-1.4577, 2.4423
09-Sep-2020 11:00:06.804,-0.0647, 0.9874, 0.0794,-0.0300,-0.0453,-0.1359,-2.4110,-1.4565, 2.4492
09-Sep-2020 11:00:06.815,-0.0627, 0.9813, 0.0763,-0.0215,-0.0515,-0.1290,-2.4048,-1.4555, 2.4559
09-Sep-2020 11:00:06.824,-0.0614, 0.9800, 0.0721,-0.0097,-0.0590,-0.1212,-2.3987,-1.4545, 2.4626
09-Sep-2020 11:00:06.834,-0.0574, 0.9793, 0.0767, 0.0019,-0.0576,-0.1085,-2.3925,-1.4537, 2.4695
09-Sep-2020 11:00:06.844,-0.0501, 0.9842, 0.0846, 0.0071,-0.0509,-0.0930,-2.3865,-1.4531, 2.4762
09-Sep-2020 11:00:06.854,-0.0439, 0.9901, 0.0922, 0.0005,-0.0446,-0.0785,-2.3813,-1.4526, 2.4820
09-Sep-2020 11:00:06.864,-0.0432, 0.9931, 0.0965,-0.0094,-0.0249,-0.0643,-2.3773,-1.4521, 2.4864
09-Sep-2020 11:00:06.874,-0.0433, 0.9936, 0.0938,-0.0191,-0.0218,-0.0514,-2.3746,-1.4517, 2.4894
09-Sep-2020 11:00:06.884,-0.0436, 0.9947, 0.0877,-0.0270,-0.0372,-0.0397,-2.3732,-1.4513, 2.4911
09-Sep-2020 11:00:06.894,-0.0470, 0.9914, 0.0831,-0.0331,-0.0571,-0.0358,-2.3731,-1.4509, 2.4916
09-Sep-2020 11:00:06.904,-0.0492, 0.9868, 0.0786,-0.0302,-0.0757,-0.0353,-2.3737,-1.4505, 2.4916
09-Sep-2020 11:00:06.914,-0.0441, 0.9852, 0.0732,-0.0251,-0.0834,-0.0316,-2.3744,-1.4502, 2.4916
09-Sep-2020 11:00:06.924,-0.0403, 0.9821, 0.0703,-0.0174,-0.0760,-0.0274,-2.3751,-1.4499, 2.4918
09-Sep-2020 11:00:06.934,-0.0414, 0.9793, 0.0670,-0.0091,-0.0500,-0.0276,-2.3756,-1.4497, 2.4921
09-Sep-2020 11:00:06.944,-0.0438, 0.9761, 0.0629,-0.0076,-0.0158,-0.0207,-2.3755,-1.4495, 2.4927
09-Sep-2020 11:00:06.955,-0.0458, 0.9693, 0.0609, 0.0010, 0.0236,-0.0148,-2.3753,-1.4494, 2.4931
09-Sep-2020 11:00:06.964,-0.0536, 0.9662, 0.0609, 0.0071, 0.0560,-0.0131,-2.3746,-1.4495, 2.4935
09-Sep-2020 11:00:06.974,-0.0658, 0.9703, 0.0619, 0.0182, 0.0849,-0.0022,-2.3735,-1.4495, 2.4942
09-Sep-2020 11:00:06.984,-0.0786, 0.9797, 0.0658, 0.0294, 0.0993, 0.0004,-2.3718,-1.4498, 2.4950
09-Sep-2020 11:00:06.994,-0.0872, 0.9900, 0.0752, 0.0338, 0.1107,-0.0016,-2.3696,-1.4501, 2.4963
09-Sep-2020 11:00:07.003,-0.0924, 0.9984, 0.0841, 0.0305, 0.1146,-0.0051,-2.3669,-1.4504, 2.4979
09-Sep-2020 11:00:07.013,-0.0943, 1.0023, 0.0870, 0.0275, 0.1138,-0.0067,-2.3641,-1.4507, 2.4996
09-Sep-2020 11:00:07.023,-0.0948, 1.0037, 0.0882, 0.0217, 0.0917,-0.0076,-2.3614,-1.4510, 2.5012
09-Sep-2020 11:00:07.033,-0.0951, 1.0042, 0.0856, 0.0196, 0.0474,-0.0078,-2.3592,-1.4512, 2.5026
09-Sep-2020 11:00:07.044,-0.0934, 1.0050, 0.0812, 0.0210,-0.0106,-0.0094,-2.3574,-1.4514, 2.5039
09-Sep-2020 11:00:07.053,-0.0892, 1.0031, 0.0828, 0.0207,-0.0678,-0.0124,-2.3560,-1.4517, 2.5055
09-Sep-2020 11:00:07.063,-0.0841, 0.9961, 0.0868, 0.0236,-0.1105,-0.0117,-2.3550,-1.4518, 2.5072
09-Sep-2020 11:00:07.073,-0.0782, 0.9909, 0.0899, 0.0239,-0.1275,-0.0099,-2.3542,-1.4520, 2.5091
09-Sep-2020 11:00:07.083,-0.0756, 0.9899, 0.0925, 0.0224,-0.1306,-0.0041,-2.3536,-1.4522, 2.5110
09-Sep-2020 11:00:07.093,-0.0758, 0.9896, 0.0952, 0.0249,-0.1281, 0.0018,-2.3533,-1.4524, 2.5126
09-Sep-2020 11:00:07.103,-0.0770, 0.9879, 0.0991, 0.0289,-0.1139, 0.0083,-2.3533,-1.4527, 2.5140
09-Sep-2020 11:00:07.113,-0.0802, 0.9842, 0.1090, 0.0317,-0.0974, 0.0151,-2.3533,-1.4530, 2.5151
09-Sep-2020 11:00:07.123,-0.0825, 0.9800, 0.1152, 0.0272,-0.0886, 0.0241,-2.3536,-1.4534, 2.5158
09-Sep-2020 11:00:07.133,-0.0822, 0.9798, 0.1162, 0.0183,-0.0830, 0.0300,-2.3544,-1.4539, 2.5159
09-Sep-2020 11:00:07.143,-0.0785, 0.9843, 0.1132, 0.0052,-0.0875, 0.0332,-2.3561,-1.4543, 2.5151
09-Sep-2020 11:00:07.153,-0.0755, 0.9948, 0.1078,-0.0013,-0.1064, 0.0366,-2.3588,-1.4547, 2.5132
09-Sep-2020 11:00:07.163,-0.0726, 1.0063, 0.1034,-0.0079,-0.1330, 0.0366,-2.3624,-1.4550, 2.5107
09-Sep-2020 11:00:07.173,-0.0729, 1.0121, 0.0978,-0.0136,-0.1644, 0.0374,-2.3667,-1.4553, 2.5077
09-Sep-2020 11:00:07.183,-0.0743, 1.0090, 0.0916,-0.0171,-0.2138, 0.0351,-2.3718,-1.4555, 2.5042
09-Sep-2020 11:00:07.193,-0.0781, 0.9975, 0.0807,-0.0258,-0.2684, 0.0341,-2.3776,-1.4557, 2.5006
09-Sep-2020 11:00:07.203,-0.0759, 0.9845, 0.0720,-0.0259,-0.3276, 0.0293,-2.3843,-1.4558, 2.4966
09-Sep-2020 11:00:07.212,-0.0687, 0.9713, 0.0684,-0.0144,-0.3580, 0.0227,-2.3913,-1.4559, 2.4929
09-Sep-2020 11:00:07.222,-0.0595, 0.9617, 0.0701, 0.0082,-0.3618, 0.0151,-2.3974,-1.4560, 2.4902
09-Sep-2020 11:00:07.233,-0.0465, 0.9626, 0.0765, 0.0322,-0.3221, 0.0071,-2.4019,-1.4562, 2.4894
09-Sep-2020 11:00:07.242,-0.0345, 0.9721, 0.0858, 0.0475,-0.2514,-0.0007,-2.4041,-1.4566, 2.4904
09-Sep-2020 11:00:07.252,-0.0261, 0.9812, 0.0979, 0.0484,-0.1517, 0.0033,-2.4043,-1.4570, 2.4927
09-Sep-2020 11:00:07.262,-0.0262, 0.9868, 0.1010, 0.0453,-0.0407, 0.0047,-2.4035,-1.4574, 2.4950
09-Sep-2020 11:00:07.272,-0.0347, 0.9906, 0.0928, 0.0404, 0.0485, 0.0080,-2.4019,-1.4579, 2.4971
09-Sep-2020 11:00:07.282,-0.0460, 0.9885, 0.0814, 0.0328, 0.1164, 0.0052,-2.3998,-1.4583, 2.4987
09-Sep-2020 11:00:07.292,-0.0582, 0.9852, 0.0717, 0.0288, 0.1564, 0.0034,-2.3972,-1.4587, 2.5002
09-Sep-2020 11:00:07.302,-0.0682, 0.9856, 0.0660, 0.0238, 0.1866, 0.0037,-2.3944,-1.4590, 2.5015
09-Sep-2020 11:00:07.312,-0.0726, 0.9895, 0.0626, 0.0199, 0.1961, 0.0001,-2.3915,-1.4593, 2.5026
09-Sep-2020 11:00:07.322,-0.0742, 0.9940, 0.0660, 0.0232, 0.2011,-0.0035,-2.3887,-1.4595, 2.5035
09-Sep-2020 11:00:07.332,-0.0697, 0.9967, 0.0703, 0.0240, 0.2021,-0.0088,-2.3856,-1.4597, 2.5046
09-Sep-2020 11:00:07.342,-0.0596, 1.0013, 0.0728, 0.0269, 0.2066,-0.0101,-2.3821,-1.4600, 2.5061
09-Sep-2020 11:00:07.352,-0.0470, 1.0050, 0.0757, 0.0329, 0.2153,-0.0070,-2.3784,-1.4602, 2.5078
09-Sep-2020 11:00:07.362,-0.0318, 1.0075, 0.0781, 0.0309, 0.2241,-0.0070,-2.3744,-1.4605, 2.5097
09-Sep-2020 11:00:07.372,-0.0184, 1.0024, 0.0803, 0.0331, 0.2420,-0.0017,-2.3702,-1.4608, 2.5116
09-Sep-2020 11:00:07.383,-0.0097, 0.9961, 0.0755, 0.0296, 0.2629, 0.0073,-2.3660,-1.4611, 2.5134
09-Sep-2020 11:00:07.392,-0.0085, 0.9883, 0.0671, 0.0376, 0.2879, 0.0157,-2.3621,-1.4614, 2.5147
09-Sep-2020 11:00:07.401,-0.0145, 0.9791, 0.0601, 0.0500, 0.3100, 0.0250,-2.3581,-1.4619, 2.5159
09-Sep-2020 11:00:07.412,-0.0225, 0.9701, 0.0538, 0.0682, 0.3217, 0.0349,-2.3536,-1.4626, 2.5174
09-Sep-2020 11:00:07.421,-0.0308, 0.9672, 0.0539, 0.0915, 0.3322, 0.0332,-2.3483,-1.4634, 2.5195
09-Sep-2020 11:00:07.431,-0.0375, 0.9729, 0.0676, 0.1077, 0.3545, 0.0363,-2.3415,-1.4643, 2.5230
09-Sep-2020 11:00:07.441,-0.0410, 0.9883, 0.0869, 0.1079, 0.3793, 0.0296,-2.3335,-1.4654, 2.5275
09-Sep-2020 11:00:07.451,-0.0438, 1.0062, 0.1109, 0.0888, 0.4182, 0.0213,-2.3249,-1.4665, 2.5325
09-Sep-2020 11:00:07.462,-0.0402, 1.0185, 0.1274, 0.0611, 0.4684, 0.0094,-2.3161,-1.4673, 2.5371
09-Sep-2020 11:00:07.471,-0.0305, 1.0244, 0.1290, 0.0305, 0.5058, 0.0087,-2.3080,-1.4679, 2.5406
09-Sep-2020 11:00:07.481,-0.0201, 1.0274, 0.1229, 0.0000, 0.5339, 0.0064,-2.3017,-1.4682, 2.5419
09-Sep-2020 11:00:07.491,-0.0054, 1.0239, 0.1065,-0.0289, 0.5402, 0.0127,-2.2971,-1.4683, 2.5412
09-Sep-2020 11:00:07.501,-0.0019, 1.0150, 0.0796,-0.0380, 0.5325, 0.0316,-2.2948,-1.4683, 2.5381
09-Sep-2020 11:00:07.511,-0.0001, 0.9967, 0.0509,-0.0269, 0.4931, 0.0574,-2.2944,-1.4684, 2.5332
09-Sep-2020 11:00:07.521,-0.0039, 0.9842, 0.0223,-0.0086, 0.4238, 0.0835,-2.2953,-1.4687, 2.5275
09-Sep-2020 11:00:07.531,-0.0116, 0.9741, 0.0032, 0.0214, 0.3308, 0.1069,-2.2972,-1.4694, 2.5214
09-Sep-2020 11:00:07.541,-0.0212, 0.9717,-0.0012, 0.0435, 0.2342, 0.1272,-2.2995,-1.4704, 2.5158
09-Sep-2020 11:00:07.551,-0.0343, 0.9754, 0.0103, 0.0609, 0.1668, 0.1403,-2.3026,-1.4717, 2.5104
09-Sep-2020 11:00:07.561,-0.0530, 0.9814, 0.0307, 0.0678, 0.1300, 0.1337,-2.3060,-1.4732, 2.5053
09-Sep-2020 11:00:07.571,-0.0653, 0.9868, 0.0505, 0.0641, 0.1289, 0.1089,-2.3089,-1.4747, 2.5011
09-Sep-2020 11:00:07.581,-0.0795, 0.9993, 0.0600, 0.0630, 0.1481, 0.0770,-2.3105,-1.4760, 2.4982
09-Sep-2020 11:00:07.591,-0.0923, 1.0032, 0.0677, 0.0651, 0.1976, 0.0615,-2.3101,-1.4771, 2.4972
09-Sep-2020 11:00:07.601,-0.0961, 0.9960, 0.0683, 0.0696, 0.2451, 0.0545,-2.3076,-1.4781, 2.4977
09-Sep-2020 11:00:07.611,-0.1040, 0.9967, 0.0613, 0.0673, 0.2765, 0.0448,-2.3038,-1.4790, 2.4992
09-Sep-2020 11:00:07.621,-0.1085, 0.9986, 0.0476, 0.0618, 0.2813, 0.0280,-2.2990,-1.4799, 2.5012
09-Sep-2020 11:00:07.631,-0.1124, 1.0012, 0.0407, 0.0558, 0.2723, 0.0102,-2.2935,-1.4806, 2.5041
09-Sep-2020 11:00:07.641,-0.1184, 1.0045, 0.0388, 0.0510, 0.2504, 0.0001,-2.2872,-1.4811, 2.5077
09-Sep-2020 11:00:07.651,-0.1228, 1.0068, 0.0397, 0.0454, 0.2024,-0.0071,-2.2806,-1.4815, 2.5119
09-Sep-2020 11:00:07.660,-0.1268, 1.0063, 0.0432, 0.0327, 0.1265,-0.0034,-2.2745,-1.4818, 2.5160
09-Sep-2020 11:00:07.670,-0.1353, 1.0027, 0.0447, 0.0127, 0.0536,-0.0015,-2.2705,-1.4821, 2.5188
09-Sep-2020 11:00:07.681,-0.1413, 0.9954, 0.0412, 0.0103,-0.0303, 0.0031,-2.2688,-1.4822, 2.5200
09-Sep-2020 11:00:07.690,-0.1447, 0.9891, 0.0360, 0.0177,-0.1182, 0.0086,-2.2685,-1.4824, 2.5207
09-Sep-2020 11:00:07.700,-0.1460, 0.9865, 0.0315, 0.0248,-0.1924, 0.0148,-2.2688,-1.4826, 2.5216
09-Sep-2020 11:00:07.710,-0.1455, 0.9858, 0.0293, 0.0235,-0.2484, 0.0203,-2.2696,-1.4829, 2.5228
09-Sep-2020 11:00:07.720,-0.1441, 0.9866, 0.0312, 0.0227,-0.2875, 0.0132,-2.2711,-1.4833, 2.5238
09-Sep-2020 11:00:07.730,-0.1382, 0.9887, 0.0339, 0.0220,-0.3012,-0.0034,-2.2725,-1.4836, 2.5253
09-Sep-2020 11:00:07.740,-0.1283, 0.9917, 0.0382, 0.0214,-0.2891,-0.0315,-2.2728,-1.4837, 2.5279
09-Sep-2020 11:00:07.750,-0.1115, 0.9957, 0.0461, 0.0121,-0.2727,-0.0569,-2.2713,-1.4837, 2.5323
09-Sep-2020 11:00:07.760,-0.0904, 1.0042, 0.0540,-0.0073,-0.2601,-0.0785,-2.2685,-1.4834, 2.5379
09-Sep-2020 11:00:07.770,-0.0683, 1.0106, 0.0607,-0.0280,-0.2517,-0.0996,-2.2654,-1.4828, 2.5436
09-Sep-2020 11:00:07.780,-0.0452, 1.0174, 0.0669,-0.0485,-0.2425,-0.1114,-2.2627,-1.4819, 2.5490
09-Sep-2020 11:00:07.790,-0.0100, 1.0171, 0.0691,-0.0664,-0.2368,-0.0882,-2.2608,-1.4807, 2.5533
09-Sep-2020 11:00:07.800, 0.0455, 1.0465, 0.0860,-0.0818,-0.1488, 0.0561,-2.2629,-1.4798, 2.5535
09-Sep-2020 11:00:07.809,-0.0081, 1.0157, 0.0745,-0.1024,-0.0544, 0.0593,-2.2738,-1.4796, 2.5441
09-Sep-2020 11:00:07.819,-0.1203, 0.8647, 0.2091,-0.4422, 0.6170, 0.3867,-2.2859,-1.4795, 2.5327
09-Sep-2020 11:00:07.830,-0.2657, 0.9155, 0.1320,-0.6733, 1.4032, 0.7020,-2.3417,-1.4793, 2.4704
09-Sep-2020 11:00:07.839,-0.1140, 1.1654,-0.1387,-0.7809, 1.2163, 0.6618,-2.4315,-1.4794, 2.3666
09-Sep-2020 11:00:07.849,-0.0496, 1.0959,-0.1993,-0.4698, 0.4987, 0.5683,-2.5224,-1.4778, 2.2639
09-Sep-2020 11:00:07.859, 0.0555, 1.0546,-0.1746, 0.0749,-0.1951, 0.4114,-2.5952,-1.4770, 2.1857
09-Sep-2020 11:00:07.869, 0.1021, 0.9838,-0.0357, 0.3169,-0.6474,-0.0813,-2.6297,-1.4795, 2.1529
09-Sep-2020 11:00:07.879, 0.1510, 0.9299, 0.0520, 0.3992,-0.7538,-0.4008,-2.6134,-1.4819, 2.1755
09-Sep-2020 11:00:07.889, 0.1986, 0.8762, 0.1192, 0.3437,-0.6517,-0.3767,-2.5617,-1.4833, 2.2349
09-Sep-2020 11:00:07.899, 0.1858, 0.9320, 0.1535, 0.2103,-0.3672,-0.0747,-2.5129,-1.4841, 2.2903
09-Sep-2020 11:00:07.909, 0.1156, 0.9903, 0.1403, 0.0415,-0.0769, 0.1092,-2.4951,-1.4853, 2.3119
09-Sep-2020 11:00:07.919, 0.0421, 1.0201, 0.0909,-0.0582, 0.0543, 0.1045,-2.5024,-1.4863, 2.3054
09-Sep-2020 11:00:07.929,-0.0099, 0.9965,-0.0195, 0.1319,-0.2239, 0.0336,-2.5146,-1.4867, 2.2930
09-Sep-2020 11:00:07.939,-0.0340, 1.0020, 0.0234, 0.2190,-0.4682,-0.0903,-2.5115,-1.4879, 2.2983
09-Sep-2020 11:00:07.949,-0.0469, 1.0021, 0.1278, 0.0748,-0.4174,-0.2046,-2.4931,-1.4891, 2.3213
09-Sep-2020 11:00:07.959,-0.0515, 1.0041, 0.1703,-0.1448,-0.1211,-0.2625,-2.4733,-1.4885, 2.3452
09-Sep-2020 11:00:07.969,-0.0612, 1.0114, 0.1273,-0.2074, 0.1712,-0.2833,-2.4609,-1.4859, 2.3589
09-Sep-2020 11:00:07.979,-0.0793, 1.0135, 0.0818,-0.1067, 0.3600,-0.3135,-2.4487,-1.4826, 2.3695
09-Sep-2020 11:00:07.989,-0.1110, 0.9871, 0.0804, 0.0029, 0.4306,-0.3179,-2.4270,-1.4799, 2.3878
09-Sep-2020 11:00:07.999,-0.1443, 0.9633, 0.0715, 0.0696, 0.3418,-0.2959,-2.3978,-1.4779, 2.4130
09-Sep-2020 11:00:08.009,-0.1752, 0.9744, 0.0558, 0.0523, 0.1174,-0.2624,-2.3676,-1.4764, 2.4401
09-Sep-2020 11:00:08.019,-0.1864, 1.0016, 0.0333, 0.0070,-0.1460,-0.2103,-2.3438,-1.4750, 2.4628
09-Sep-2020 11:00:08.029,-0.1836, 1.0196, 0.0094, 0.0024,-0.4005,-0.1367,-2.3298,-1.4737, 2.4784
09-Sep-2020 11:00:08.039,-0.1658, 0.9985, 0.0067, 0.0407,-0.6153,-0.0404,-2.3240,-1.4728, 2.4883
09-Sep-2020 11:00:08.049,-0.1270, 0.9851, 0.0231, 0.0620,-0.8188, 0.0729,-2.3246,-1.4729, 2.4938
09-Sep-2020 11:00:08.059,-0.0866, 1.0130, 0.0492, 0.0602,-0.9517, 0.1098,-2.3331,-1.4738, 2.4935
09-Sep-2020 11:00:08.068,-0.0380, 1.0196, 0.0739, 0.0657,-0.9526, 0.1273,-2.3460,-1.4751, 2.4900
09-Sep-2020 11:00:08.078,-0.0132, 0.9866, 0.0865, 0.0465,-0.9241, 0.1511,-2.3604,-1.4765, 2.4850
09-Sep-2020 11:00:08.089, 0.0070, 0.9858, 0.0927, 0.0159,-0.8216, 0.1635,-2.3779,-1.4780, 2.4766
09-Sep-2020 11:00:08.098, 0.0185, 0.9712, 0.0893,-0.0098,-0.6751, 0.1573,-2.3980,-1.4793, 2.4647
09-Sep-2020 11:00:08.109, 0.0349, 0.9732, 0.0839,-0.0156,-0.5035, 0.1226,-2.4182,-1.4804, 2.4511
09-Sep-2020 11:00:08.118, 0.0469, 0.9904, 0.0766,-0.0114,-0.3203, 0.0835,-2.4349,-1.4811, 2.4394
09-Sep-2020 11:00:08.128, 0.0483, 0.9976, 0.0724,-0.0122,-0.2071, 0.0522,-2.4465,-1.4816, 2.4311
09-Sep-2020 11:00:08.138, 0.0327, 1.0007, 0.0751, 0.0009,-0.1371, 0.0238,-2.4542,-1.4820, 2.4254
09-Sep-2020 11:00:08.148, 0.0214, 0.9869, 0.0811, 0.0315,-0.0786, 0.0148,-2.4579,-1.4822, 2.4231
09-Sep-2020 11:00:08.158, 0.0172, 0.9841, 0.0815, 0.0372,-0.0680, 0.0248,-2.4584,-1.4826, 2.4235
09-Sep-2020 11:00:08.168, 0.0190, 0.9936, 0.0754, 0.0252,-0.0789, 0.0419,-2.4590,-1.4831, 2.4236
09-Sep-2020 11:00:08.178, 0.0236, 1.0072, 0.0707, 0.0126,-0.0881, 0.0523,-2.4618,-1.4837, 2.4216
09-Sep-2020 11:00:08.188, 0.0196, 1.0099, 0.0654, 0.0278,-0.0967, 0.0618,-2.4667,-1.4842, 2.4176
09-Sep-2020 11:00:08.198, 0.0226, 1.0154, 0.0714, 0.0499,-0.0769, 0.0625,-2.4716,-1.4849, 2.4136
09-Sep-2020 11:00:08.208, 0.0235, 1.0144, 0.0803, 0.0443,-0.0443, 0.0547,-2.4751,-1.4857, 2.4109
09-Sep-2020 11:00:08.218, 0.0217, 1.0042, 0.0830, 0.0324, 0.0067, 0.0545,-2.4780,-1.4864, 2.4085
09-Sep-2020 11:00:08.228, 0.0183, 0.9992, 0.0814, 0.0231, 0.0468, 0.0671,-2.4811,-1.4871, 2.4053
09-Sep-2020 11:00:08.238, 0.0071, 0.9967, 0.0750, 0.0189, 0.0621, 0.0768,-2.4856,-1.4878, 2.4004
09-Sep-2020 11:00:08.248,-0.0061, 0.9941, 0.0697, 0.0160, 0.0675, 0.0759,-2.4914,-1.4884, 2.3940
09-Sep-2020 11:00:08.257,-0.0180, 0.9915, 0.0669, 0.0087, 0.0651, 0.0725,-2.4983,-1.4891, 2.3864
09-Sep-2020 11:00:08.267,-0.0293, 0.9874, 0.0648, 0.0035, 0.0658, 0.0605,-2.5054,-1.4897, 2.3787
09-Sep-2020 11:00:08.277,-0.0353, 0.9835, 0.0639, 0.0073, 0.0774, 0.0460,-2.5116,-1.4903, 2.3718
09-Sep-2020 11:00:08.288,-0.0394, 0.9850, 0.0657, 0.0141, 0.0823, 0.0306,-2.5160,-1.4907, 2.3666
09-Sep-2020 11:00:08.297,-0.0455, 0.9932, 0.0721, 0.0179, 0.0862, 0.0138,-2.5185,-1.4911, 2.3633
09-Sep-2020 11:00:08.307,-0.0484, 1.0009, 0.0801, 0.0115, 0.0972, 0.0052,-2.5194,-1.4914, 2.3616
09-Sep-2020 11:00:08.317,-0.0502, 1.0044, 0.0811,-0.0006, 0.1201,-0.0073,-2.5194,-1.4917, 2.3606
09-Sep-2020 11:00:08.327,-0.0496, 1.0036, 0.0707,-0.0194, 0.1337,-0.0147,-2.5188,-1.4917, 2.3601
09-Sep-2020 11:00:08.337,-0.0438, 1.0005, 0.0574,-0.0298, 0.1358,-0.0172,-2.5184,-1.4916, 2.3592
09-Sep-2020 11:00:08.347,-0.0371, 0.9936, 0.0459,-0.0255, 0.1415,-0.0174,-2.5184,-1.4914, 2.3579
09-Sep-2020 11:00:08.357,-0.0317, 0.9898, 0.0349,-0.0095, 0.1378,-0.0179,-2.5178,-1.4912, 2.3571
09-Sep-2020 11:00:08.367,-0.0265, 0.9798, 0.0267,-0.0014, 0.1292,-0.0171,-2.5160,-1.4911, 2.3575
09-Sep-2020 11:00:08.377,-0.0273, 0.9730, 0.0226, 0.0063, 0.1254,-0.0116,-2.5138,-1.4910, 2.3585
09-Sep-2020 11:00:08.387,-0.0298, 0.9756, 0.0227, 0.0155, 0.1241,-0.0071,-2.5114,-1.4911, 2.3596
09-Sep-2020 11:00:08.397,-0.0366, 0.9869, 0.0267, 0.0247, 0.1187,-0.0046,-2.5089,-1.4912, 2.3610
09-Sep-2020 11:00:08.407,-0.0477, 0.9994, 0.0350, 0.0304, 0.1265,-0.0035,-2.5060,-1.4915, 2.3627
09-Sep-2020 11:00:08.417,-0.0600, 1.0036, 0.0425, 0.0368, 0.1378, 0.0023,-2.5028,-1.4918, 2.3647
09-Sep-2020 11:00:08.427,-0.0704, 1.0024, 0.0485, 0.0339, 0.1329, 0.0020,-2.4994,-1.4921, 2.3668
09-Sep-2020 11:00:08.436,-0.0780, 0.9960, 0.0514, 0.0340, 0.1201, 0.0050,-2.4960,-1.4925, 2.3688
09-Sep-2020 11:00:08.446,-0.0819, 0.9915, 0.0535, 0.0292, 0.1031, 0.0087,-2.4933,-1.4929, 2.3704
09-Sep-2020 11:00:08.456,-0.0834, 0.9914, 0.0547, 0.0258, 0.0784, 0.0093,-2.4913,-1.4933, 2.3714
09-Sep-2020 11:00:08.466,-0.0817, 0.9958, 0.0552, 0.0233, 0.0467, 0.0111,-2.4897,-1.4937, 2.3722
09-Sep-2020 11:00:08.477,-0.0810, 0.9990, 0.0604, 0.0140, 0.0176, 0.0125,-2.4889,-1.4940, 2.3726
09-Sep-2020 11:00:08.486,-0.0806, 1.0020, 0.0640, 0.0005,-0.0116, 0.0060,-2.4892,-1.4943, 2.3722
09-Sep-2020 11:00:08.496,-0.0795, 1.0068, 0.0659,-0.0101,-0.0374,-0.0064,-2.4901,-1.4945, 2.3714
09-Sep-2020 11:00:08.506,-0.0744, 1.0052, 0.0654,-0.0199,-0.0682,-0.0113,-2.4910,-1.4945, 2.3710
09-Sep-2020 11:00:08.516,-0.0704, 1.0026, 0.0609,-0.0285,-0.1085,-0.0130,-2.4921,-1.4943, 2.3705
09-Sep-2020 11:00:08.526,-0.0685, 1.0044, 0.0572,-0.0427,-0.1500,-0.0179,-2.4940,-1.4941, 2.3697
09-Sep-2020 11:00:08.536,-0.0638, 1.0043, 0.0529,-0.0511,-0.1916,-0.0257,-2.4969,-1.4937, 2.3684
09-Sep-2020 11:00:08.546,-0.0530, 0.9938, 0.0495,-0.0504,-0.2243,-0.0233,-2.5001,-1.4932, 2.3670
09-Sep-2020 11:00:08.556,-0.0424, 0.9845, 0.0487,-0.0505,-0.2296,-0.0178,-2.5038,-1.4927, 2.3655
09-Sep-2020 11:00:08.566,-0.0317, 0.9799, 0.0477,-0.0384,-0.2262,-0.0178,-2.5079,-1.4923, 2.3638
09-Sep-2020 11:00:08.576,-0.0231, 0.9795, 0.0501,-0.0311,-0.2123,-0.0133,-2.5113,-1.4919, 2.3627
09-Sep-2020 11:00:08.586,-0.0217, 0.9856, 0.0495,-0.0245,-0.1968,-0.0140,-2.5143,-1.4916, 2.3617
09-Sep-2020 11:00:08.596,-0.0232, 0.9949, 0.0520,-0.0284,-0.1859,-0.0182,-2.5168,-1.4914, 2.3612
09-Sep-2020 11:00:08.606,-0.0257, 1.0000, 0.0500,-0.0324,-0.1805,-0.0161,-2.5192,-1.4911, 2.3607
09-Sep-2020 11:00:08.616,-0.0316, 1.0004, 0.0460,-0.0338,-0.1797,-0.0160,-2.5218,-1.4908, 2.3599
09-Sep-2020 11:00:08.626,-0.0351, 0.9993, 0.0436,-0.0254,-0.1926,-0.0175,-2.5245,-1.4906, 2.3591
09-Sep-2020 11:00:08.636,-0.0392, 0.9993, 0.0500,-0.0157,-0.2124,-0.0197,-2.5268,-1.4903, 2.3587
09-Sep-2020 11:00:08.646,-0.0382, 1.0008, 0.0613,-0.0182,-0.2365,-0.0233,-2.5285,-1.4902, 2.3591
09-Sep-2020 11:00:08.655,-0.0357, 1.0027, 0.0717,-0.0214,-0.2536,-0.0322,-2.5301,-1.4900, 2.3599
09-Sep-2020 11:00:08.666,-0.0336, 1.0061, 0.0747,-0.0224,-0.2759,-0.0372,-2.5314,-1.4897, 2.3612
