Timestamp,accelX,accelY,accelZ,gyroX(rad/s),gyroY(rad/s),gyroZ(rad/s),Roll(rads),Pitch(rads),Yaw(rads)
09-Sep-2020 11:01:34.692, 0.4306,-0.1821,-1.0241, 1.1217,-1.7861,-1.2556, 0.4140, 0.2105,-1.0314
09-Sep-2020 11:01:34.702, 0.3729,-0.1957,-0.9971, 0.9929,-2.1079,-1.3272, 0.3996, 0.2158,-1.0476
09-Sep-2020 11:01:34.712, 0.3352,-0.2266,-0.9691, 0.8533,-2.1148,-1.4154, 0.3824, 0.2199,-1.0639
09-Sep-2020 11:01:34.722, 0.3079,-0.2410,-0.9206, 0.7024,-1.8815,-1.5144, 0.3651, 0.2228,-1.0805
09-Sep-2020 11:01:34.732, 0.2730,-0.2101,-0.9239, 0.5243,-1.5562,-1.5939, 0.3501, 0.2241,-1.0974
09-Sep-2020 11:01:34.742, 0.2453,-0.1627,-0.9219, 0.3602,-1.1283,-1.6449, 0.3385, 0.2237,-1.1145
09-Sep-2020 11:01:34.752, 0.2288,-0.1150,-0.9122, 0.1999,-0.7144,-1.6369, 0.3310, 0.2218,-1.1315
09-Sep-2020 11:01:34.762, 0.2489,-0.1130,-0.9269, 0.0781,-0.3563,-1.5594, 0.3274, 0.2185,-1.1478
09-Sep-2020 11:01:34.772, 0.2723,-0.1496,-0.9557, 0.0130,-0.1045,-1.4131, 0.3270, 0.2143,-1.1630
09-Sep-2020 11:01:34.782, 0.3130,-0.1919,-0.9418, 0.0090, 0.0597,-1.3528, 0.3288, 0.2100,-1.1767
09-Sep-2020 11:01:34.792, 0.3176,-0.1938,-0.9224, 0.0095,-0.0608,-1.3130, 0.3319, 0.2058,-1.1897
09-Sep-2020 11:01:34.802, 0.3454,-0.2679,-0.9281,-0.0077,-0.4028,-1.2001, 0.3336, 0.2017,-1.2022
09-Sep-2020 11:01:34.812, 0.3655,-0.3245,-0.9232,-0.0467,-0.7979,-1.0953, 0.3318, 0.1977,-1.2137
09-Sep-2020 11:01:34.822, 0.3312,-0.3246,-0.9311,-0.0723,-1.0759,-1.0728, 0.3260, 0.1938,-1.2240
09-Sep-2020 11:01:34.832, 0.2467,-0.3169,-0.9530,-0.0856,-1.0834,-1.1397, 0.3173, 0.1898,-1.2341
09-Sep-2020 11:01:34.842, 0.1634,-0.3014,-0.9634,-0.0641,-1.0774,-1.1947, 0.3086, 0.1856,-1.2448
09-Sep-2020 11:01:34.851, 0.1313,-0.2377,-1.0186,-0.1207,-1.2698,-1.1891, 0.2996, 0.1814,-1.2559
09-Sep-2020 11:01:34.862, 0.1456,-0.2140,-1.0378,-0.2270,-1.2888,-1.2917, 0.2891, 0.1769,-1.2670
09-Sep-2020 11:01:34.872, 0.1428,-0.2840,-0.9933,-0.3156,-1.1185,-1.3770, 0.2784, 0.1712,-1.2789
09-Sep-2020 11:01:34.881, 0.1327,-0.3397,-1.0071,-0.4187,-0.8284,-1.4073, 0.2694, 0.1645,-1.2913
09-Sep-2020 11:01:34.891, 0.0841,-0.3264,-1.0423,-0.5674,-0.2287,-1.4373, 0.2634, 0.1568,-1.3038
09-Sep-2020 11:01:34.901, 0.0193,-0.2808,-0.9878,-0.7953, 0.8172,-1.4748, 0.2633, 0.1476,-1.3162
09-Sep-2020 11:01:34.912,-0.0284,-0.2415,-0.8951,-1.0730, 2.0694,-1.5244, 0.2733, 0.1361,-1.3283
09-Sep-2020 11:01:34.921,-0.0445,-0.1948,-0.8446,-1.3381, 3.0645,-1.5713, 0.2952, 0.1217,-1.3399
09-Sep-2020 11:01:34.931,-0.0107,-0.1520,-0.8837,-1.4725, 3.4202,-1.5777, 0.3265, 0.1044,-1.3508
09-Sep-2020 11:01:34.941, 0.0360,-0.1265,-1.0400,-1.3888, 3.0750,-1.5616, 0.3610, 0.0855,-1.3606
09-Sep-2020 11:01:34.951, 0.0414,-0.0972,-1.1877,-1.1304, 2.4979,-1.6030, 0.3922, 0.0670,-1.3700
09-Sep-2020 11:01:34.961, 0.0844,-0.0317,-1.2782,-0.7611, 1.7626,-1.9341, 0.4175, 0.0504,-1.3805
09-Sep-2020 11:01:34.971, 0.0971,-0.0204,-1.3744,-0.2845, 1.1614,-2.1558, 0.4357, 0.0357,-1.3948
09-Sep-2020 11:01:34.981, 0.1727,-0.1008,-1.2845, 0.2098, 0.6963,-2.1771, 0.4479, 0.0241,-1.4128
09-Sep-2020 11:01:34.991, 0.3622, 0.0369,-1.2051, 0.7190,-0.3037,-2.2530, 0.4548, 0.0166,-1.4333
09-Sep-2020 11:01:35.001, 0.3326, 0.1304,-1.3023, 1.2627,-1.7164,-2.4164, 0.4518, 0.0132,-1.4566
09-Sep-2020 11:01:35.011, 0.2957, 0.0735,-1.3246, 1.8001,-2.9281,-2.6150, 0.4351, 0.0143,-1.4837
09-Sep-2020 11:01:35.021, 0.3800, 0.0031,-1.1584, 2.2794,-3.4267,-2.8835, 0.4070, 0.0200,-1.5147
09-Sep-2020 11:01:35.031, 0.3469,-0.0054,-0.9911, 2.7097,-3.4677,-3.2855, 0.3740, 0.0301,-1.5499
09-Sep-2020 11:01:35.041, 0.2676, 0.0226,-0.9680, 3.1115,-3.3019,-3.7707, 0.3411, 0.0439,-1.5900
09-Sep-2020 11:01:35.051, 0.2180, 0.0810,-1.0000, 3.4671,-2.9250,-4.2667, 0.3107, 0.0613,-1.6354
09-Sep-2020 11:01:35.061, 0.1876, 0.1339,-0.9606, 3.3377,-1.6898,-4.3276, 0.2854, 0.0819,-1.6861
09-Sep-2020 11:01:35.071, 0.2602, 0.0952,-0.5876, 2.4369, 0.1177,-3.2027, 0.2733, 0.1019,-1.7360
09-Sep-2020 11:01:35.082, 0.4074,-0.0758,-0.5086, 1.6574, 1.1247,-1.8124, 0.2778, 0.1168,-1.7732
09-Sep-2020 11:01:35.091, 0.3939,-0.2516,-0.5705, 1.1628, 2.0819,-1.3330, 0.2919, 0.1276,-1.7960
09-Sep-2020 11:01:35.101, 0.4035,-0.2405,-0.5421, 0.9586, 2.3729,-1.1729, 0.3144, 0.1349,-1.8124
09-Sep-2020 11:01:35.111, 0.4192,-0.1936,-0.7283, 1.0126, 1.6238,-0.8694, 0.3392, 0.1404,-1.8265
09-Sep-2020 11:01:35.121, 0.4835,-0.1734,-0.9946, 1.1870, 0.4461,-0.4645, 0.3568, 0.1471,-1.8381
09-Sep-2020 11:01:35.131, 0.5435,-0.2466,-1.1369, 1.3989,-0.9134,-0.0379, 0.3622, 0.1566,-1.8466
09-Sep-2020 11:01:35.140, 0.5060,-0.2309,-1.1991, 1.5767,-2.2229, 0.4026, 0.3540, 0.1696,-1.8519
09-Sep-2020 11:01:35.150, 0.4607,-0.2106,-1.2005, 1.8287,-3.5508, 0.9068, 0.3320, 0.1858,-1.8533
09-Sep-2020 11:01:35.160, 0.4324,-0.0890,-1.0545, 2.0053,-4.0232, 1.1463, 0.2967, 0.2059,-1.8504
09-Sep-2020 11:01:35.170, 0.3803,-0.0212,-0.7500, 1.9885,-3.3103, 1.2054, 0.2562, 0.2281,-1.8447
09-Sep-2020 11:01:35.180, 0.3219,-0.0634,-0.5342, 1.8537,-2.2236, 1.1741, 0.2218, 0.2501,-1.8375
09-Sep-2020 11:01:35.191, 0.2714,-0.1338,-0.6068, 1.5282,-1.6086, 0.7876, 0.1973, 0.2705,-1.8298
09-Sep-2020 11:01:35.200, 0.1637,-0.2105,-0.7352, 0.9014,-1.4036, 0.0387, 0.1797, 0.2867,-1.8249
09-Sep-2020 11:01:35.210,-0.0039,-0.3350,-0.7809, 0.1969,-1.2617,-0.7059, 0.1660, 0.2956,-1.8260
09-Sep-2020 11:01:35.220,-0.0858,-0.4360,-0.8367,-0.3356,-0.8903,-1.2283, 0.1558, 0.2966,-1.8334
09-Sep-2020 11:01:35.230,-0.0225,-0.2859,-0.8710,-0.5820,-0.4072,-1.4667, 0.1505, 0.2917,-1.8453
09-Sep-2020 11:01:35.240, 0.1304,-0.0698,-0.9321,-0.5064,-0.0521,-1.3828, 0.1503, 0.2841,-1.8592
09-Sep-2020 11:01:35.250, 0.3028,-0.0486,-1.0253,-0.1755, 0.0791,-1.0449, 0.1532, 0.2772,-1.8723
09-Sep-2020 11:01:35.260, 0.4028,-0.0980,-1.0726, 0.1928,-0.0720,-0.6471, 0.1566, 0.2740,-1.8826
09-Sep-2020 11:01:35.269, 0.4051,-0.1233,-1.0561, 0.4052,-0.3164,-0.3265, 0.1577, 0.2748,-1.8895
09-Sep-2020 11:01:35.279, 0.3511,-0.1409,-0.9736, 0.4012,-0.4489,-0.1339, 0.1557, 0.2782,-1.8935
09-Sep-2020 11:01:35.289, 0.2811,-0.1560,-0.8868, 0.2236,-0.4891,-0.1198, 0.1518, 0.2818,-1.8956
09-Sep-2020 11:01:35.299, 0.1928,-0.1905,-0.8492,-0.0352,-0.6182,-0.2137, 0.1473, 0.2839,-1.8971
09-Sep-2020 11:01:35.309, 0.1471,-0.2232,-0.8622,-0.2875,-0.8443,-0.3335, 0.1417, 0.2833,-1.8992
09-Sep-2020 11:01:35.319, 0.1324,-0.1956,-0.8480,-0.5408,-0.8318,-0.4080, 0.1343, 0.2800,-1.9021
09-Sep-2020 11:01:35.330, 0.1404,-0.1624,-0.8315,-0.7652,-0.6824,-0.3950, 0.1270, 0.2742,-1.9055
09-Sep-2020 11:01:35.339, 0.1506,-0.1333,-0.8841,-0.9151,-0.5118,-0.2911, 0.1209, 0.2663,-1.9084
09-Sep-2020 11:01:35.349, 0.1626,-0.1073,-0.8964,-0.9588,-0.3138,-0.0972, 0.1163, 0.2570,-1.9102
09-Sep-2020 11:01:35.359, 0.1530,-0.0752,-0.8821,-0.9695,-0.2258, 0.0709, 0.1131, 0.2475,-1.9100
09-Sep-2020 11:01:35.369, 0.1214,-0.0028,-0.8814,-0.9595,-0.3327, 0.1043, 0.1102, 0.2380,-1.9082
09-Sep-2020 11:01:35.380, 0.0731, 0.0539,-0.8757,-0.9337,-0.5807, 0.0403, 0.1063, 0.2287,-1.9061
09-Sep-2020 11:01:35.389,-0.0110, 0.0575,-0.8631,-0.9041,-0.7233,-0.0519, 0.1003, 0.2195,-1.9046
09-Sep-2020 11:01:35.399,-0.0836, 0.0306,-0.7902,-0.9506,-0.4981,-0.1865, 0.0932, 0.2105,-1.9042
09-Sep-2020 11:01:35.409,-0.1002,-0.0226,-0.7060,-1.1311,-0.2016,-0.3558, 0.0885, 0.2009,-1.9052
09-Sep-2020 11:01:35.419,-0.0447,-0.1380,-0.7471,-1.3840,-0.0247,-0.4231, 0.0868, 0.1893,-1.9076
09-Sep-2020 11:01:35.429, 0.0472,-0.1952,-0.8068,-1.6230, 0.0976,-0.3349, 0.0871, 0.1753,-1.9105
09-Sep-2020 11:01:35.439, 0.1109,-0.1096,-0.8077,-1.8072, 0.1367,-0.1545, 0.0883, 0.1590,-1.9123
09-Sep-2020 11:01:35.450, 0.1232,-0.0083,-0.8026,-1.9383, 0.0919,-0.0004, 0.0895, 0.1410,-1.9122
09-Sep-2020 11:01:35.459, 0.0697, 0.0373,-0.8967,-1.9564,-0.0913,-0.0014, 0.0901, 0.1219,-1.9104
09-Sep-2020 11:01:35.470,-0.0624, 0.1063,-1.0343,-1.8838,-0.2679,-0.2540, 0.0890, 0.1026,-1.9088
09-Sep-2020 11:01:35.479,-0.1913, 0.2133,-1.0890,-1.6878,-0.3995,-0.6835, 0.0865, 0.0838,-1.9097
09-Sep-2020 11:01:35.489,-0.2327, 0.2574,-1.1173,-1.3374,-0.5753,-1.1760, 0.0829, 0.0667,-1.9151
09-Sep-2020 11:01:35.499,-0.1898, 0.2256,-1.1464,-0.8643,-0.8132,-1.6231, 0.0777, 0.0526,-1.9256
09-Sep-2020 11:01:35.509,-0.1171, 0.1624,-1.1590,-0.4591,-1.1496,-1.8906, 0.0703, 0.0428,-1.9409
09-Sep-2020 11:01:35.519,-0.0667, 0.1012,-1.1134,-0.2433,-1.3064,-2.0397, 0.0596, 0.0370,-1.9592
09-Sep-2020 11:01:35.529,-0.0822, 0.0938,-0.9923,-0.1066,-1.0178,-2.1377, 0.0476, 0.0335,-1.9793
09-Sep-2020 11:01:35.538,-0.1249, 0.0368,-0.9354,-0.0672,-0.6189,-2.1108, 0.0382, 0.0315,-2.0003
09-Sep-2020 11:01:35.549,-0.1787,-0.0148,-0.9326,-0.1413,-0.3076,-2.0171, 0.0326, 0.0300,-2.0212
09-Sep-2020 11:01:35.559,-0.2346,-0.0132,-0.9304,-0.3728,-0.1015,-1.9304, 0.0301, 0.0279,-2.0411
09-Sep-2020 11:01:35.569,-0.2592, 0.0358,-0.9334,-0.7628,-0.2307,-1.9495, 0.0293, 0.0236,-2.0602
09-Sep-2020 11:01:35.578,-0.2509, 0.0982,-0.9819,-1.1848,-0.6035,-2.1232, 0.0272, 0.0154,-2.0794
09-Sep-2020 11:01:35.588,-0.1947, 0.1326,-0.9957,-1.3986,-0.9552,-2.2625, 0.0214, 0.0033,-2.1002
09-Sep-2020 11:01:35.599,-0.1150, 0.0770,-1.0091,-1.4063,-1.2529,-2.2492, 0.0118,-0.0108,-2.1223
09-Sep-2020 11:01:35.609,-0.1345, 0.0515,-1.0238,-1.4199,-1.3929,-2.2232,-0.0010,-0.0249,-2.1445
09-Sep-2020 11:01:35.618,-0.2811, 0.1058,-1.0131,-1.4199,-1.3929,-2.2232,-0.0154,-0.0389,-2.1668
09-Sep-2020 11:01:35.628,-0.4239, 0.1973,-0.9803,-1.7356,-0.7008,-2.5906,-0.0282,-0.0538,-2.1906
09-Sep-2020 11:01:35.638,-0.4465, 0.2523,-0.9540,-1.9159,-0.2015,-2.7985,-0.0368,-0.0702,-2.2169
09-Sep-2020 11:01:35.648,-0.3875, 0.2870,-0.9823,-2.0649, 0.0799,-2.9217,-0.0413,-0.0881,-2.2454
09-Sep-2020 11:01:35.658,-0.2972, 0.3500,-1.0040,-2.2025, 0.2184,-2.9971,-0.0435,-0.1074,-2.2754
09-Sep-2020 11:01:35.668,-0.1879, 0.3720,-0.9990,-2.3319, 0.2015,-3.0064,-0.0451,-0.1280,-2.3062
09-Sep-2020 11:01:35.678,-0.0867, 0.3548,-1.0162,-2.4718, 0.0620,-2.9405,-0.0475,-0.1497,-2.3374
09-Sep-2020 11:01:35.688,-0.0276, 0.3649,-0.9859,-2.6441,-0.0632,-2.8359,-0.0518,-0.1729,-2.3681
09-Sep-2020 11:01:35.698, 0.0152, 0.3884,-0.9509,-2.8480,-0.2085,-2.7471,-0.0580,-0.1976,-2.3982
09-Sep-2020 11:01:35.708, 0.0562, 0.3924,-1.0237,-3.0205,-0.4109,-2.6191,-0.0663,-0.2241,-2.4278
09-Sep-2020 11:01:35.718, 0.0003, 0.4076,-1.1270,-3.0389,-0.7293,-2.5392,-0.0773,-0.2521,-2.4567
09-Sep-2020 11:01:35.728,-0.1074, 0.4570,-1.2897,-2.7997,-0.9365,-2.6003,-0.0921,-0.2799,-2.4855
09-Sep-2020 11:01:35.738,-0.1840, 0.4704,-1.3595,-2.3314,-0.7572,-2.6884,-0.1098,-0.3049,-2.5152
09-Sep-2020 11:01:35.748,-0.1908, 0.4188,-1.3712,-1.8378,-0.3811,-2.7470,-0.1267,-0.3247,-2.5459
09-Sep-2020 11:01:35.758,-0.1598, 0.4139,-1.2963,-1.5171, 0.0100,-2.7470,-0.1407,-0.3393,-2.5771
09-Sep-2020 11:01:35.767,-0.1158, 0.3945,-1.1691,-1.3937, 0.2935,-2.6661,-0.1511,-0.3503,-2.6080
09-Sep-2020 11:01:35.777,-0.0813, 0.3551,-1.0414,-1.4254, 0.3512,-2.5785,-0.1588,-0.3600,-2.6382
09-Sep-2020 11:01:35.787,-0.0851, 0.3696,-0.9592,-1.5295, 0.1617,-2.5909,-0.1661,-0.3699,-2.6677
09-Sep-2020 11:01:35.797,-0.1015, 0.3888,-0.9607,-1.5630,-0.1331,-2.6757,-0.1755,-0.3804,-2.6978
09-Sep-2020 11:01:35.807,-0.1111, 0.3658,-0.9787,-1.4974,-0.4281,-2.7587,-0.1886,-0.3908,-2.7290
09-Sep-2020 11:01:35.817,-0.1165, 0.3710,-0.9811,-1.4230,-0.4886,-2.8342,-0.2052,-0.4000,-2.7612
09-Sep-2020 11:01:35.827,-0.0989, 0.4268,-0.9354,-1.3742,-0.2064,-2.8412,-0.2228,-0.4079,-2.7943
09-Sep-2020 11:01:35.837,-0.0420, 0.4420,-0.8861,-1.3470, 0.2197,-2.7161,-0.2381,-0.4147,-2.8276
09-Sep-2020 11:01:35.847, 0.0051, 0.4431,-0.8632,-1.2931, 0.5877,-2.5013,-0.2490,-0.4212,-2.8597
09-Sep-2020 11:01:35.857, 0.0283, 0.4450,-0.8930,-1.1589, 0.7630,-2.2370,-0.2555,-0.4274,-2.8895
09-Sep-2020 11:01:35.867, 0.0199, 0.4407,-0.9372,-1.1589, 0.7630,-2.2370,-0.2593,-0.4328,-2.9163
09-Sep-2020 11:01:35.877,-0.0016, 0.4237,-0.9760,-0.7063, 0.4569,-1.8126,-0.2624,-0.4366,-2.9401
09-Sep-2020 11:01:35.887,-0.0206, 0.4167,-0.9883,-0.5539, 0.1077,-1.6749,-0.2669,-0.4387,-2.9613
09-Sep-2020 11:01:35.897,-0.0324, 0.4263,-0.9646,-0.5009,-0.2069,-1.5519,-0.2740,-0.4396,-2.9806
09-Sep-2020 11:01:35.907,-0.0470, 0.4402,-0.9281,-0.5256,-0.2881,-1.4423,-0.2835,-0.4402,-2.9984
09-Sep-2020 11:01:35.916,-0.0653, 0.4746,-0.8960,-0.5713, 0.0106,-1.3582,-0.2933,-0.4411,-3.0152
09-Sep-2020 11:01:35.927,-0.0890, 0.5313,-0.8926,-0.5487, 0.6089,-1.3150,-0.2999,-0.4426,-3.0313
09-Sep-2020 11:01:35.936,-0.0966, 0.5404,-0.9220,-0.4127, 1.3028,-1.2824,-0.3005,-0.4438,-3.0468
09-Sep-2020 11:01:35.946,-0.0575, 0.4730,-1.0029,-0.1648, 1.7669,-1.2096,-0.2940,-0.4439,-3.0615
09-Sep-2020 11:01:35.956, 0.0332, 0.3427,-1.1253, 0.2198, 1.7479,-1.0666,-0.2823,-0.4420,-3.0746
09-Sep-2020 11:01:35.966, 0.0983, 0.2096,-1.2097, 0.5668, 1.4189,-0.9279,-0.2696,-0.4370,-3.0852
09-Sep-2020 11:01:35.976, 0.0946, 0.2025,-1.1169, 0.7175, 1.0516,-0.8251,-0.2589,-0.4293,-3.0934
09-Sep-2020 11:01:35.986, 0.0598, 0.2385,-0.9709, 0.6628, 0.7441,-0.7265,-0.2512,-0.4204,-3.1001
09-Sep-2020 11:01:35.996,-0.0040, 0.2711,-0.8527, 0.4660, 0.4916,-0.6189,-0.2461,-0.4123,-3.1059
09-Sep-2020 11:01:36.006,-0.0866, 0.3084,-0.7845, 0.2094, 0.3911,-0.5470,-0.2433,-0.4063,-3.1111
09-Sep-2020 11:01:36.016,-0.1599, 0.3556,-0.7384,-0.0415, 0.5189,-0.5500,-0.2413,-0.4030,-3.1163
09-Sep-2020 11:01:36.026,-0.2173, 0.4081,-0.7148,-0.2456, 0.8470,-0.6555,-0.2383,-0.4020,-3.1221
09-Sep-2020 11:01:36.036,-0.2571, 0.4745,-0.7083,-0.3836, 1.1885,-0.8150,-0.2328,-0.4028,-3.1296
09-Sep-2020 11:01:36.046,-0.2181, 0.4659,-0.8025,-0.3725, 1.3303,-0.8773,-0.2248,-0.4046,-3.1390
09-Sep-2020 11:01:36.056,-0.1558, 0.4130,-0.9010,-0.2283, 1.3781,-0.8525,-0.2155,-0.4062, 3.1342
09-Sep-2020 11:01:36.066,-0.1000, 0.4025,-0.9154,-0.0210, 1.3923,-0.8054,-0.2056,-0.4066, 3.1247
09-Sep-2020 11:01:36.076,-0.0765, 0.3996,-0.9058, 0.1664, 1.3079,-0.7733,-0.1952,-0.4053, 3.1162
09-Sep-2020 11:01:36.086,-0.0947, 0.4000,-0.8655, 0.2800, 1.2013,-0.7607,-0.1853,-0.4022, 3.1084
09-Sep-2020 11:01:36.096,-0.1397, 0.4109,-0.7791, 0.2765, 1.1171,-0.7617,-0.1762,-0.3982, 3.1009
09-Sep-2020 11:01:36.106,-0.1998, 0.4406,-0.6960, 0.1480, 1.0226,-0.8024,-0.1680,-0.3942, 3.0934
09-Sep-2020 11:01:36.115,-0.2553, 0.4952,-0.6505,-0.0630, 1.0268,-0.8692,-0.1610,-0.3915, 3.0852
09-Sep-2020 11:01:36.126,-0.2670, 0.5450,-0.6332,-0.2730, 1.2551,-0.9001,-0.1541,-0.3907, 3.0760
09-Sep-2020 11:01:36.135,-0.1970, 0.5276,-0.6728,-0.3925, 1.4346,-0.7998,-0.1454,-0.3920, 3.0661
09-Sep-2020 11:01:36.145,-0.1964, 0.7261,-0.7573,-0.2382, 1.8508,-0.8805,-0.1347,-0.3947, 3.0571
09-Sep-2020 11:01:36.156,-0.5710, 1.3275,-0.9808, 0.0545, 2.1225,-0.9000,-0.1203,-0.3960, 3.0475
09-Sep-2020 11:01:36.165, 0.0296, 0.4674,-0.8615, 0.4912, 2.3673,-0.5173,-0.1025,-0.3942, 3.0383
09-Sep-2020 11:01:36.175, 0.3106,-0.1637,-0.9562, 0.6803, 1.7825,-0.2216,-0.0815,-0.3891, 3.0333
09-Sep-2020 11:01:36.185, 0.1873, 0.0869,-1.1287, 0.6667, 0.9800,-0.0509,-0.0646,-0.3822, 3.0314
09-Sep-2020 11:01:36.195, 0.0994, 0.3585,-1.0384, 0.7670, 0.6112, 0.0867,-0.0546,-0.3755, 3.0314
09-Sep-2020 11:01:36.205,-0.0168, 0.3947,-0.8933, 0.8336, 0.4312, 0.0950,-0.0480,-0.3679, 3.0327
09-Sep-2020 11:01:36.215,-0.1334, 0.3517,-0.7854, 0.7285, 0.2763,-0.0233,-0.0432,-0.3597, 3.0341
09-Sep-2020 11:01:36.225,-0.1275, 0.2957,-0.8075, 0.6370, 0.0583, 0.0452,-0.0405,-0.3524, 3.0345
09-Sep-2020 11:01:36.235,-0.0319, 0.2507,-0.9221, 0.5832, 0.1657, 0.1531,-0.0395,-0.3460, 3.0354
09-Sep-2020 11:01:36.245, 0.0024, 0.4039,-1.0213, 0.6599,-0.3199, 0.2059,-0.0375,-0.3402, 3.0373
09-Sep-2020 11:01:36.255, 0.1229, 0.5011,-1.3686, 0.5090,-0.5041, 0.2568,-0.0394,-0.3339, 3.0398
09-Sep-2020 11:01:36.265, 0.1430, 0.5142,-0.9609, 0.4379,-0.5622, 0.3660,-0.0434,-0.3288, 3.0428
09-Sep-2020 11:01:36.275, 0.1602, 0.5141,-1.2805, 0.6718,-0.8402, 0.4171,-0.0480,-0.3244, 3.0469
09-Sep-2020 11:01:36.285, 0.0258, 0.4031,-1.1959, 0.7926,-0.6595, 0.3063,-0.0546,-0.3180, 3.0516
09-Sep-2020 11:01:36.295,-0.1297, 0.3608,-1.0166, 0.8772,-0.4014, 0.1102,-0.0600,-0.3103, 3.0553
09-Sep-2020 11:01:36.304,-0.1269, 0.4467,-0.9854, 0.8596,-0.1699,-0.0485,-0.0634,-0.3017, 3.0571
09-Sep-2020 11:01:36.314,-0.0508, 0.3824,-0.9569, 0.8145,-0.1114,-0.0889,-0.0652,-0.2931, 3.0573
09-Sep-2020 11:01:36.324, 0.0266, 0.3069,-0.9728, 0.7617,-0.1065,-0.0907,-0.0664,-0.2849, 3.0571
09-Sep-2020 11:01:36.335, 0.0435, 0.2728,-0.9182, 0.6371, 0.0447,-0.1234,-0.0675,-0.2773, 3.0567
09-Sep-2020 11:01:36.344,-0.0437, 0.2709,-0.7904, 0.4660, 0.4326,-0.2374,-0.0671,-0.2709, 3.0559
09-Sep-2020 11:01:36.354,-0.1321, 0.2985,-0.7272, 0.2648, 0.7477,-0.2466,-0.0634,-0.2661, 3.0539
09-Sep-2020 11:01:36.364,-0.0684, 0.2024,-0.7255, 0.0296, 0.9137,-0.0703,-0.0566,-0.2634, 3.0517
09-Sep-2020 11:01:36.374,-0.0103, 0.1031,-0.8007,-0.1519, 0.8991, 0.0503,-0.0478,-0.2630, 3.0511
09-Sep-2020 11:01:36.384,-0.1058, 0.1391,-0.9118,-0.3928, 0.8133,-0.1276,-0.0387,-0.2645, 3.0514
09-Sep-2020 11:01:36.394,-0.3521, 0.2849,-0.8544,-0.7786, 0.6126,-0.2570,-0.0312,-0.2685, 3.0501
09-Sep-2020 11:01:36.404,-0.1809, 0.3211,-0.8130,-0.8934, 0.7849,-0.1608,-0.0256,-0.2759, 3.0474
09-Sep-2020 11:01:36.414,-0.0160, 0.2266,-0.8818,-0.8689, 0.8664,-0.0314,-0.0183,-0.2847, 3.0457
09-Sep-2020 11:01:36.424, 0.0144, 0.1578,-0.9429,-0.8532, 0.8505, 0.0390,-0.0099,-0.2933, 3.0452
09-Sep-2020 11:01:36.434, 0.0570, 0.1331,-0.9565,-0.8104, 0.7332, 0.1484,-0.0013,-0.3017, 3.0457
09-Sep-2020 11:01:36.444, 0.1280, 0.1199,-1.0332,-0.7603, 0.4712, 0.3228, 0.0063,-0.3098, 3.0474
09-Sep-2020 11:01:36.454, 0.1886, 0.1056,-1.0997,-0.6782, 0.1582, 0.5383, 0.0121,-0.3172, 3.0510
09-Sep-2020 11:01:36.464, 0.1562, 0.1274,-1.0722,-0.5670, 0.1741, 0.6586, 0.0156,-0.3239, 3.0567
09-Sep-2020 11:01:36.474, 0.0249, 0.2900,-0.9186,-0.4396, 0.5503, 0.6417, 0.0198,-0.3293, 3.0637
09-Sep-2020 11:01:36.484,-0.0174, 0.3704,-0.8734,-0.2340, 0.8998, 0.5648, 0.0275,-0.3335, 3.0706
09-Sep-2020 11:01:36.494, 0.0419, 0.3442,-0.9990, 0.0108, 0.8891, 0.6793, 0.0383,-0.3355, 3.0769
09-Sep-2020 11:01:36.504, 0.1049, 0.2283,-1.0662, 0.0838, 0.7393, 0.8746, 0.0494,-0.3352, 3.0841
09-Sep-2020 11:01:36.514, 0.1223, 0.1905,-0.9792, 0.0424, 0.8349, 1.0115, 0.0599,-0.3340, 3.0933
09-Sep-2020 11:01:36.524, 0.1461, 0.2184,-0.9080,-0.0457, 0.9208, 1.1573, 0.0717,-0.3329, 3.1040
09-Sep-2020 11:01:36.534, 0.2353, 0.2151,-0.9678,-0.1136, 0.8205, 1.3595, 0.0847,-0.3323, 3.1163
09-Sep-2020 11:01:36.544, 0.2325, 0.2065,-0.9504,-0.2468, 0.9095, 1.5063, 0.0977,-0.3322, 3.1307
09-Sep-2020 11:01:36.554, 0.1783, 0.2378,-0.8384,-0.4311, 1.1527, 1.5862, 0.1121,-0.3331,-3.1364
09-Sep-2020 11:01:36.564, 0.1728, 0.2505,-0.8124,-0.5633, 1.3670, 1.6704, 0.1292,-0.3354,-3.1192
09-Sep-2020 11:01:36.574, 0.2231, 0.2596,-0.8561,-0.6311, 1.4466, 1.7672, 0.1487,-0.3386,-3.1008
09-Sep-2020 11:01:36.584, 0.2641, 0.2651,-0.8850,-0.6776, 1.5714, 1.8009, 0.1696,-0.3419,-3.0813
09-Sep-2020 11:01:36.594, 0.2760, 0.2746,-0.8587,-0.7351, 1.7102, 1.7457, 0.1920,-0.3453,-3.0613
09-Sep-2020 11:01:36.603, 0.2977, 0.2664,-0.8635,-0.7973, 1.6808, 1.6346, 0.2156,-0.3489,-3.0415
09-Sep-2020 11:01:36.613, 0.3262, 0.2447,-0.9048,-0.7961, 1.6108, 1.4155, 0.2388,-0.3529,-3.0228
09-Sep-2020 11:01:36.624, 0.3561, 0.3147,-0.8971,-0.7630, 1.5025, 1.1865, 0.2605,-0.3571,-3.0061
09-Sep-2020 11:01:36.633, 0.3976, 0.4113,-0.8807,-0.6944, 1.3974, 0.9908, 0.2805,-0.3611,-2.9917
09-Sep-2020 11:01:36.644, 0.4127, 0.4373,-0.8828,-0.5799, 1.2961, 0.8406, 0.2988,-0.3649,-2.9794
09-Sep-2020 11:01:36.653, 0.4103, 0.4278,-0.9128,-0.4348, 1.1728, 0.7886, 0.3154,-0.3677,-2.9689
09-Sep-2020 11:01:36.663, 0.4228, 0.3904,-0.9158,-0.3375, 1.0148, 0.7966, 0.3305,-0.3693,-2.9593
09-Sep-2020 11:01:36.673, 0.4382, 0.3682,-0.8625,-0.3230, 1.0754, 0.8143, 0.3441,-0.3699,-2.9500
09-Sep-2020 11:01:36.683, 0.4507, 0.3779,-0.7812,-0.3579, 1.2737, 0.8403, 0.3583,-0.3701,-2.9406
09-Sep-2020 11:01:36.693, 0.4629, 0.4049,-0.7800,-0.3979, 1.4893, 0.8834, 0.3745,-0.3704,-2.9308
09-Sep-2020 11:01:36.703, 0.4593, 0.4242,-0.8199,-0.4358, 1.6939, 0.9531, 0.3931,-0.3707,-2.9204
09-Sep-2020 11:01:36.713, 0.4403, 0.4338,-0.8500,-0.5073, 1.7539, 0.9604, 0.4138,-0.3710,-2.9092
09-Sep-2020 11:01:36.723, 0.3914, 0.4491,-0.8895,-0.5514, 1.7661, 1.0140, 0.4355,-0.3715,-2.8976
09-Sep-2020 11:01:36.733, 0.4056, 0.4107,-0.9529,-0.6134, 1.5532, 1.0635, 0.4573,-0.3721,-2.8853
09-Sep-2020 11:01:36.743, 0.3932, 0.4326,-0.9888,-0.6587, 1.2965, 1.1735, 0.4776,-0.3727,-2.8721
09-Sep-2020 11:01:36.753, 0.4441, 0.4098,-1.0230,-0.6407, 1.2100, 1.2770, 0.4959,-0.3729,-2.8577
09-Sep-2020 11:01:36.763, 0.4014, 0.4608,-1.0237,-0.7094, 1.0781, 1.3770, 0.5135,-0.3723,-2.8423
09-Sep-2020 11:01:36.773, 0.4665, 0.4600,-0.9975,-0.7866, 1.0290, 1.4959, 0.5303,-0.3715,-2.8257
09-Sep-2020 11:01:36.782, 0.4383, 0.4584,-0.9731,-0.9560, 0.9606, 1.5598, 0.5470,-0.3706,-2.8077
09-Sep-2020 11:01:36.792, 0.4242, 0.4995,-0.9290,-1.1351, 0.9335, 1.5544, 0.5636,-0.3705,-2.7882
09-Sep-2020 11:01:36.802, 0.3996, 0.5430,-0.9286,-1.3245, 0.9643, 1.5977, 0.5804,-0.3716,-2.7676
09-Sep-2020 11:01:36.812, 0.4161, 0.5433,-0.9121,-1.5232, 1.0355, 1.6943, 0.5981,-0.3736,-2.7455
09-Sep-2020 11:01:36.822, 0.3955, 0.5387,-0.9061,-1.7186, 1.1477, 1.8255, 0.6172,-0.3763,-2.7212
09-Sep-2020 11:01:36.832, 0.3730, 0.5267,-0.8896,-1.9568, 1.2717, 1.9526, 0.6385,-0.3795,-2.6946
09-Sep-2020 11:01:36.842, 0.3546, 0.5507,-0.8462,-2.2486, 1.3703, 2.1711, 0.6621,-0.3831,-2.6651
09-Sep-2020 11:01:36.852, 0.4136, 0.5154,-0.8031,-2.5387, 1.3826, 2.4162, 0.6882,-0.3870,-2.6317
09-Sep-2020 11:01:36.862, 0.4363, 0.5218,-0.7874,-2.8088, 1.3511, 2.6016, 0.7161,-0.3907,-2.5943
09-Sep-2020 11:01:36.872, 0.4463, 0.5598,-0.7508,-3.0497, 1.2486, 2.7281, 0.7452,-0.3942,-2.5532
09-Sep-2020 11:01:36.882, 0.4582, 0.5720,-0.7208,-3.1964, 1.0806, 2.8283, 0.7745,-0.3974,-2.5093
09-Sep-2020 11:01:36.892, 0.4545, 0.5976,-0.7242,-3.2340, 0.8823, 2.9053, 0.8031,-0.3997,-2.4633
09-Sep-2020 11:01:36.902, 0.4531, 0.6119,-0.7183,-3.1977, 0.6658, 3.0024, 0.8302,-0.4005,-2.4163
09-Sep-2020 11:01:36.912, 0.4669, 0.6199,-0.6958,-3.1272, 0.4454, 3.0776, 0.8552,-0.3993,-2.3689
09-Sep-2020 11:01:36.921, 0.4568, 0.6319,-0.6575,-3.0443, 0.1924, 3.0978, 0.8779,-0.3961,-2.3217
09-Sep-2020 11:01:36.931, 0.4508, 0.6121,-0.6281,-2.9343,-0.1160, 3.1035, 0.8977,-0.3912,-2.2752
09-Sep-2020 11:01:36.942, 0.4661, 0.5799,-0.6174,-2.8047,-0.3994, 3.1147, 0.9137,-0.3848,-2.2298
09-Sep-2020 11:01:36.952, 0.4748, 0.5752,-0.5594,-2.7139,-0.5143, 3.1208, 0.9263,-0.3769,-2.1856
09-Sep-2020 11:01:36.962, 0.4728, 0.5797,-0.4568,-2.6901,-0.4437, 3.1396, 0.9370,-0.3681,-2.1424
09-Sep-2020 11:01:36.972, 0.4776, 0.5623,-0.3647,-2.7223,-0.2717, 3.1755, 0.9479,-0.3585,-2.0995
09-Sep-2020 11:01:36.982, 0.4865, 0.5467,-0.3053,-2.7814,-0.0680, 3.1821, 0.9601,-0.3483,-2.0564
09-Sep-2020 11:01:36.991, 0.4798, 0.5340,-0.2693,-2.8126, 0.1204, 3.1536, 0.9739,-0.3379,-2.0132
09-Sep-2020 11:01:37.001, 0.4801, 0.5045,-0.2922,-2.7595, 0.2154, 3.1352, 0.9891,-0.3272,-1.9701
09-Sep-2020 11:01:37.011, 0.5003, 0.4662,-0.3573,-2.6255, 0.1344, 3.1329, 1.0044,-0.3158,-1.9280
09-Sep-2020 11:01:37.021, 0.4563, 0.3629,-0.3967,-2.7181, 0.0111, 1.9319, 1.0182,-0.3043,-1.8878
09-Sep-2020 11:01:37.031, 0.6106, 0.3096,-0.4262,-2.7823,-0.8095, 1.9396, 1.0284,-0.3006,-1.8524
09-Sep-2020 11:01:37.041, 0.9541, 0.3878,-0.5820,-2.4997,-2.1070, 2.5338, 1.0303,-0.2977,-1.8171
09-Sep-2020 11:01:37.051, 0.9484, 0.2581,-0.6596,-2.0788,-2.3050, 3.2438, 1.0206,-0.2890,-1.7813
09-Sep-2020 11:01:37.061, 0.6709, 0.4464,-0.2946,-1.7021,-1.4929, 3.5304, 1.0084,-0.2728,-1.7454
09-Sep-2020 11:01:37.071, 0.4438, 0.4020,-0.2325,-1.4672,-1.0894, 3.2962, 1.0021,-0.2524,-1.7112
09-Sep-2020 11:01:37.081, 0.4393, 0.2640,-0.3382,-1.5136,-1.0064, 2.7658, 0.9985,-0.2328,-1.6803
09-Sep-2020 11:01:37.091, 0.5796, 0.1028,-0.3922,-2.4658,-1.1080, 1.4450, 0.9947,-0.2186,-1.6517
09-Sep-2020 11:01:37.101, 0.6950,-0.3331,-0.4172,-3.5225,-1.5805, 0.8649, 0.9897,-0.2195,-1.6224
09-Sep-2020 11:01:37.111, 1.0435,-0.0355,-0.3925,-4.0081,-1.1220, 1.9121, 0.9825,-0.2306,-1.5871
09-Sep-2020 11:01:37.121, 1.2240, 0.4654,-0.3972,-3.3400,-0.1624, 2.7930, 0.9819,-0.2365,-1.5430
09-Sep-2020 11:01:37.131, 0.9688, 0.3866,-0.4486,-2.5098, 0.4799, 3.4059, 0.9903,-0.2317,-1.4988
09-Sep-2020 11:01:37.141, 0.6966, 0.2934,-0.4197,-1.8899, 0.6567, 3.6198, 1.0038,-0.2170,-1.4585
09-Sep-2020 11:01:37.151, 0.6785, 0.2705,-0.6120,-1.4778, 0.2281, 3.6610, 1.0170,-0.1966,-1.4226
09-Sep-2020 11:01:37.161, 0.8448, 0.2955,-0.6134,-1.1655, 0.3699, 3.3105, 1.0257,-0.1733,-1.3906
09-Sep-2020 11:01:37.171, 0.9371, 0.4699,-0.4185,-1.0706, 0.4329, 2.4206, 1.0337,-0.1515,-1.3634
09-Sep-2020 11:01:37.181, 1.2422, 0.4995,-0.5416,-0.9738,-0.1207, 2.1477, 1.0406,-0.1357,-1.3415
09-Sep-2020 11:01:37.190, 1.3076, 0.4283,-0.7605,-0.8190,-0.5893, 2.1021, 1.0420,-0.1219,-1.3221
09-Sep-2020 11:01:37.200, 1.0872, 0.3897,-0.7560,-0.6165,-0.6929, 2.0183, 1.0384,-0.1079,-1.3044
09-Sep-2020 11:01:37.210, 0.9025, 0.3080,-0.7338,-0.4737,-0.7498, 2.0173, 1.0331,-0.0937,-1.2888
09-Sep-2020 11:01:37.221, 0.8096, 0.1736,-0.7449,-0.4438,-0.8572, 2.1839, 1.0268,-0.0787,-1.2742
09-Sep-2020 11:01:37.230, 0.7357, 0.0974,-0.6564,-0.5753,-0.7181, 2.3044, 1.0196,-0.0625,-1.2590
09-Sep-2020 11:01:37.240, 0.6346, 0.0910,-0.5235,-0.7980,-0.5029, 2.3117, 1.0134,-0.0460,-1.2420
09-Sep-2020 11:01:37.250, 0.5232,-0.0738,-0.4713,-1.0730,-0.4506, 2.2427, 1.0089,-0.0307,-1.2231
09-Sep-2020 11:01:37.260, 0.4840,-0.2125,-0.4495,-1.3392,-0.4396, 2.1915, 1.0049,-0.0175,-1.2021
09-Sep-2020 11:01:37.270, 0.5026,-0.2312,-0.4041,-1.5396,-0.3000, 2.2798, 1.0009,-0.0061,-1.1791
09-Sep-2020 11:01:37.280, 0.5401,-0.2044,-0.3530,-1.6461, 0.0130, 2.4563, 0.9981, 0.0049,-1.1540
09-Sep-2020 11:01:37.290, 0.5629,-0.1857,-0.3288,-1.6683, 0.4104, 2.6271, 0.9980, 0.0167,-1.1270
09-Sep-2020 11:01:37.300, 0.6397,-0.1817,-0.3225,-1.6497, 0.6855, 2.7097, 1.0013, 0.0297,-1.0989
09-Sep-2020 11:01:37.310, 0.7005,-0.1710,-0.3443,-1.5414, 0.6950, 2.7635, 1.0069, 0.0438,-1.0706
09-Sep-2020 11:01:37.320, 0.7268,-0.1314,-0.4120,-1.2384, 0.7012, 2.6833, 1.0124, 0.0590,-1.0431
09-Sep-2020 11:01:37.330, 0.7738,-0.0755,-0.4345,-0.7687, 0.7748, 2.4200, 1.0177, 0.0752,-1.0186
09-Sep-2020 11:01:37.340, 0.8380,-0.0268,-0.4187,-0.3239, 0.7222, 2.0548, 1.0238, 0.0917,-0.9994
09-Sep-2020 11:01:37.350, 0.9250,-0.0356,-0.4336,-0.0283, 0.4938, 1.7152, 1.0295, 0.1076,-0.9859
09-Sep-2020 11:01:37.359, 1.0084,-0.0950,-0.4328, 0.1195, 0.2120, 1.4423, 1.0333, 0.1222,-0.9768
09-Sep-2020 11:01:37.370, 1.0620,-0.1244,-0.4325, 0.1587,-0.0475, 1.2045, 1.0346, 0.1352,-0.9703
09-Sep-2020 11:01:37.380, 1.0448,-0.1072,-0.4369, 0.1552,-0.3092, 0.9762, 1.0334, 0.1463,-0.9655
09-Sep-2020 11:01:37.390, 1.0068,-0.0780,-0.4744, 0.1552,-0.3092, 0.9762, 1.0298, 0.1556,-0.9618
09-Sep-2020 11:01:37.400, 0.9736,-0.0787,-0.5273, 0.1050,-0.8539, 0.6869, 1.0239, 0.1632,-0.9590
09-Sep-2020 11:01:37.410, 0.9650,-0.0884,-0.5053,-0.2963,-1.6969, 0.6906, 1.0148, 0.1696,-0.9561
09-Sep-2020 11:01:37.419, 0.9735,-0.0623,-0.3687,-0.8461,-2.2556, 0.7057, 0.9970, 0.1739,-0.9499
09-Sep-2020 11:01:37.429, 0.8608, 0.0201,-0.3731,-1.4540,-1.4106, 0.8450, 0.9736, 0.1752,-0.9387
09-Sep-2020 11:01:37.440, 0.7217, 0.0587,-0.3719,-2.3033,-0.2921, 1.2376, 0.9567, 0.1740,-0.9215
09-Sep-2020 11:01:37.450, 0.8243, 0.0905,-0.2047,-3.0874, 0.3048, 1.5106, 0.9489, 0.1708,-0.8954
09-Sep-2020 11:01:37.459, 0.8984, 0.1722,-0.2046,-3.4919, 0.4097, 1.5975, 0.9460, 0.1652,-0.8615
09-Sep-2020 11:01:37.470, 0.9756, 0.1498,-0.3663,-3.6588, 0.3428, 1.7366, 0.9439, 0.1579,-0.8236
09-Sep-2020 11:01:37.479, 0.9696, 0.1239,-0.4465,-3.7508, 0.3050, 1.8444, 0.9411, 0.1506,-0.7835
09-Sep-2020 11:01:37.489, 0.8356, 0.1374,-0.4088,-3.8574, 0.4320, 1.7346, 0.9382, 0.1433,-0.7421
09-Sep-2020 11:01:37.500, 0.6871, 0.1123,-0.3319,-3.9791, 0.5817, 1.4123, 0.9368, 0.1345,-0.7006
09-Sep-2020 11:01:37.509, 0.5753, 0.1074,-0.3548,-4.0970, 0.6621, 1.0246, 0.9373, 0.1224,-0.6601
09-Sep-2020 11:01:37.519, 0.5360, 0.1761,-0.4415,-4.1945, 0.7256, 0.6505, 0.9393, 0.1066,-0.6209
09-Sep-2020 11:01:37.529, 0.5513, 0.2697,-0.5267,-4.1841, 0.5380, 0.3597, 0.9429, 0.0874,-0.5831
09-Sep-2020 11:01:37.539, 0.5590, 0.3808,-1.2705,-3.1621,-0.4722, 0.1609, 0.9441, 0.0666,-0.5481
09-Sep-2020 11:01:37.549, 0.8642, 0.2994,-1.6162,-2.5721,-0.2572, 0.2813, 0.9385, 0.0494,-0.5211
09-Sep-2020 11:01:37.559, 1.0667, 0.1014,-1.1932,-1.8378, 0.0732, 0.3810, 0.9351, 0.0366,-0.4990
09-Sep-2020 11:01:37.569, 0.8377, 0.0891,-1.3114,-1.2074, 0.1738, 0.4247, 0.9351, 0.0288,-0.4819
09-Sep-2020 11:01:37.579, 0.8294, 0.0571,-1.1661,-0.7629, 0.3952, 0.4758, 0.9366, 0.0251,-0.4696
09-Sep-2020 11:01:37.589, 0.8221, 0.0309,-1.0468,-0.5313, 0.3630, 0.4888, 0.9401, 0.0244,-0.4606
09-Sep-2020 11:01:37.599, 0.7663,-0.0103,-0.9718,-0.4430, 0.1671, 0.4710, 0.9434, 0.0253,-0.4534
09-Sep-2020 11:01:37.609, 0.7468,-0.0831,-0.8723,-0.4722,-0.0390, 0.4539, 0.9449, 0.0265,-0.4470
09-Sep-2020 11:01:37.619, 0.7323,-0.1449,-0.8071,-0.5539,-0.1957, 0.4403, 0.9443, 0.0275,-0.4405
09-Sep-2020 11:01:37.628, 0.7196,-0.1890,-0.7704,-0.6294,-0.3300, 0.4224, 0.9422, 0.0279,-0.4335
09-Sep-2020 11:01:37.638, 0.7053,-0.2215,-0.7573,-0.6976,-0.4643, 0.4006, 0.9387, 0.0276,-0.4259
09-Sep-2020 11:01:37.648, 0.6374,-0.1437,-0.6481,-1.0420,-0.3666, 0.0711, 0.9341, 0.0265,-0.4179
09-Sep-2020 11:01:37.658, 0.4608,-0.1566,-0.5433,-1.0379,-0.8698, 0.2055, 0.9294, 0.0217,-0.4090
09-Sep-2020 11:01:37.668, 0.7014,-0.3447,-0.7680,-1.0191,-0.8791, 0.1782, 0.9210, 0.0170,-0.3996
09-Sep-2020 11:01:37.678, 0.6588,-0.1273,-0.6379,-1.0659,-0.8750, 0.1875, 0.9121, 0.0124,-0.3904
09-Sep-2020 11:01:37.688, 0.6360,-0.1793,-0.6522,-1.0722,-0.9637, 0.2055, 0.9032, 0.0074,-0.3809
09-Sep-2020 11:01:37.698, 0.6112,-0.1913,-0.6614,-1.0630,-1.0465, 0.1963, 0.8936, 0.0024,-0.3713
09-Sep-2020 11:01:37.708, 0.6106,-0.1956,-0.6406,-1.0769,-1.0195, 0.1941, 0.8832,-0.0027,-0.3618
09-Sep-2020 11:01:37.718, 0.6222,-0.2202,-0.6244,-1.1217,-0.9408, 0.2040, 0.8731,-0.0080,-0.3523
09-Sep-2020 11:01:37.728, 0.6322,-0.2370,-0.6398,-1.1656,-0.8666, 0.1979, 0.8639,-0.0135,-0.3425
09-Sep-2020 11:01:37.738, 0.6340,-0.2231,-0.6717,-1.2057,-0.8383, 0.1635, 0.8554,-0.0196,-0.3324
09-Sep-2020 11:01:37.748, 0.6515,-0.1937,-0.7065,-1.2344,-0.8714, 0.1031, 0.8472,-0.0262,-0.3223
09-Sep-2020 11:01:37.758, 0.6847,-0.1650,-0.7349,-1.2460,-0.9427, 0.0507, 0.8388,-0.0335,-0.3124
09-Sep-2020 11:01:37.768, 0.7224,-0.1382,-0.7516,-1.2244,-1.0516, 0.0342, 0.8298,-0.0414,-0.3029
09-Sep-2020 11:01:37.778, 0.7684,-0.1182,-0.7656,-1.1743,-1.1704, 0.0793, 0.8197,-0.0493,-0.2936
09-Sep-2020 11:01:37.788, 0.8126,-0.1094,-0.7595,-1.0875,-1.2568, 0.1866, 0.8085,-0.0566,-0.2846
09-Sep-2020 11:01:37.798, 0.8370,-0.1070,-0.7617,-0.9636,-1.2750, 0.3417, 0.7966,-0.0627,-0.2754
09-Sep-2020 11:01:37.808, 0.8421,-0.1148,-0.7477,-0.8352,-1.1582, 0.5253, 0.7846,-0.0669,-0.2662
09-Sep-2020 11:01:37.818, 0.8290,-0.1032,-0.7350,-0.6783,-0.9603, 0.6909, 0.7738,-0.0691,-0.2566
09-Sep-2020 11:01:37.828, 0.7792,-0.0848,-0.7522,-0.5111,-0.7352, 0.7620, 0.7649,-0.0691,-0.2469
09-Sep-2020 11:01:37.837, 0.7166,-0.0661,-0.7707,-0.3745,-0.5503, 0.7205, 0.7582,-0.0675,-0.2379
09-Sep-2020 11:01:37.847, 0.6747,-0.0677,-0.7961,-0.3038,-0.4302, 0.6203, 0.7531,-0.0653,-0.2301
09-Sep-2020 11:01:37.857, 0.6676,-0.0794,-0.8116,-0.3114,-0.4006, 0.4822, 0.7492,-0.0633,-0.2235
09-Sep-2020 11:01:37.867, 0.6760,-0.0813,-0.8244,-0.3824,-0.4264, 0.3577, 0.7455,-0.0623,-0.2178
09-Sep-2020 11:01:37.877, 0.7019,-0.0862,-0.8459,-0.4569,-0.4978, 0.2635, 0.7416,-0.0626,-0.2125
09-Sep-2020 11:01:37.887, 0.7347,-0.0988,-0.8923,-0.4973,-0.6028, 0.2112, 0.7369,-0.0640,-0.2075
09-Sep-2020 11:01:37.897, 0.7644,-0.1033,-0.9389,-0.4888,-0.6815, 0.2029, 0.7312,-0.0662,-0.2026
09-Sep-2020 11:01:37.907, 0.7752,-0.0819,-0.9592,-0.4321,-0.6823, 0.2198, 0.7248,-0.0684,-0.1978
09-Sep-2020 11:01:37.917, 0.7667,-0.0575,-0.9586,-0.3219,-0.6129, 0.2415, 0.7184,-0.0701,-0.1934
09-Sep-2020 11:01:37.927, 0.7476,-0.0456,-0.9643,-0.1677,-0.5210, 0.2411, 0.7126,-0.0708,-0.1895
09-Sep-2020 11:01:37.937, 0.7383,-0.0422,-0.9636,-0.0097,-0.4143, 0.2301, 0.7076,-0.0704,-0.1865
09-Sep-2020 11:01:37.947, 0.7550,-0.0493,-0.9562, 0.1108,-0.2892, 0.2207, 0.7036,-0.0690,-0.1847
09-Sep-2020 11:01:37.957, 0.7766,-0.0457,-0.9557, 0.1954,-0.2198, 0.2122, 0.7007,-0.0666,-0.1837
09-Sep-2020 11:01:37.967, 0.7903,-0.0282,-0.9769, 0.2687,-0.2446, 0.1964, 0.6985,-0.0637,-0.1833
09-Sep-2020 11:01:37.977, 0.7979,-0.0067,-1.0066, 0.3409,-0.3384, 0.1671, 0.6960,-0.0604,-0.1835
09-Sep-2020 11:01:37.987, 0.7913, 0.0118,-1.0113, 0.4147,-0.4561, 0.1319, 0.6926,-0.0566,-0.1843
09-Sep-2020 11:01:37.997, 0.7784, 0.0257,-1.0029, 0.5041,-0.5588, 0.0915, 0.6879,-0.0525,-0.1859
09-Sep-2020 11:01:38.007, 0.7518, 0.0509,-0.9881, 0.6193,-0.5769, 0.0358, 0.6823,-0.0480,-0.1884
09-Sep-2020 11:01:38.017, 0.7194, 0.0688,-0.9569, 0.7649,-0.4735,-0.0337, 0.6765,-0.0429,-0.1920
09-Sep-2020 11:01:38.027, 0.6917, 0.0709,-0.9234, 0.9325,-0.2872,-0.1119, 0.6716,-0.0371,-0.1970
09-Sep-2020 11:01:38.037, 0.6687, 0.0673,-0.8943, 1.1036,-0.0559,-0.1961, 0.6685,-0.0304,-0.2036
09-Sep-2020 11:01:38.047, 0.6632, 0.0588,-0.8612, 1.2511, 0.1710,-0.2678, 0.6677,-0.0229,-0.2119
09-Sep-2020 11:01:38.057, 0.6642, 0.0581,-0.8294, 1.3645, 0.3630,-0.3331, 0.6692,-0.0148,-0.2216
09-Sep-2020 11:01:38.067, 0.6678, 0.0558,-0.7945, 1.4354, 0.4883,-0.3716, 0.6727,-0.0061,-0.2326
09-Sep-2020 11:01:38.076, 0.6754, 0.0413,-0.7819, 1.4611, 0.5624,-0.4216, 0.6775, 0.0028,-0.2444
09-Sep-2020 11:01:38.087, 0.6883, 0.0484,-0.7621, 1.4397, 0.5909,-0.4919, 0.6831, 0.0115,-0.2568
09-Sep-2020 11:01:38.096, 0.6934, 0.0670,-0.7415, 1.3809, 0.5741,-0.5766, 0.6891, 0.0195,-0.2696
09-Sep-2020 11:01:38.107, 0.6724, 0.0780,-0.7215, 1.3227, 0.5732,-0.6928, 0.6952, 0.0265,-0.2828
09-Sep-2020 11:01:38.117, 0.6340, 0.1077,-0.6852, 1.2859, 0.6263,-0.8541, 0.7013, 0.0322,-0.2965
09-Sep-2020 11:01:38.126, 0.5813, 0.1397,-0.6585, 1.2943, 0.7943,-1.0400, 0.7081, 0.0365,-0.3113
09-Sep-2020 11:01:38.136, 0.5330, 0.1503,-0.6309, 1.3579, 1.1691,-1.2345, 0.7168, 0.0396,-0.3276
09-Sep-2020 11:01:38.146, 0.5450, 0.1255,-0.6165, 1.4761, 1.6885,-1.3817, 0.7292, 0.0417,-0.3457
09-Sep-2020 11:01:38.156, 0.6130, 0.0850,-0.6554, 1.5975, 2.1130,-1.4704, 0.7468, 0.0435,-0.3657
09-Sep-2020 11:01:38.166, 0.6815, 0.0895,-0.7202, 1.7204, 2.3353,-1.5549, 0.7687, 0.0450,-0.3873
09-Sep-2020 11:01:38.176, 0.7563, 0.1162,-0.7726, 1.8562, 2.3244,-1.6305, 0.7928, 0.0464,-0.4103
09-Sep-2020 11:01:38.186, 0.8387, 0.1099,-0.8227, 1.9759, 2.0999,-1.6767, 0.8170, 0.0476,-0.4349
09-Sep-2020 11:01:38.196, 0.8585, 0.0880,-0.8639, 2.0939, 1.7544,-1.7543, 0.8390, 0.0487,-0.4606
09-Sep-2020 11:01:38.206, 0.8232, 0.0767,-0.8739, 2.2072, 1.4454,-1.8886, 0.8578, 0.0494,-0.4879
09-Sep-2020 11:01:38.216, 0.8149, 0.0727,-0.8007, 2.2295, 1.3537,-1.9812, 0.8738, 0.0494,-0.5167
09-Sep-2020 11:01:38.225, 0.8595, 0.0540,-0.6250, 2.1031, 1.5249,-1.9658, 0.8888, 0.0483,-0.5463
09-Sep-2020 11:01:38.236, 0.9830,-0.0174,-0.1668, 1.2511, 2.9867,-1.5897, 0.9063, 0.0460,-0.5743
09-Sep-2020 11:01:38.246, 1.3087,-0.1928, 0.8233, 0.0081, 4.2631,-0.9725, 0.9367, 0.0411,-0.5935
09-Sep-2020 11:01:38.256, 1.3202,-0.3016, 0.5589,-0.5212, 3.5177,-0.7852, 0.9780, 0.0334,-0.5997
09-Sep-2020 11:01:38.265, 0.9767,-0.1744,-0.2274,-0.4687, 1.8427,-0.9948, 1.0124, 0.0241,-0.6000
09-Sep-2020 11:01:38.275, 0.8524, 0.0087,-0.4065,-0.4206, 0.6144,-1.0905, 1.0310, 0.0133,-0.6011
09-Sep-2020 11:01:38.285, 0.9657, 0.1059,-0.3204,-0.4915,-0.0452,-0.8816, 1.0374, 0.0021,-0.6029
09-Sep-2020 11:01:38.295, 1.1609, 0.0535,-0.5223,-0.4396,-0.2880,-0.5163, 1.0372,-0.0078,-0.6032
09-Sep-2020 11:01:38.305, 1.1616, 0.0809,-0.6516,-0.0494,-0.3224,-0.1400, 1.0345,-0.0142,-0.6022
09-Sep-2020 11:01:38.315, 1.1105, 0.1329,-0.9600, 0.7849,-0.4448, 0.1536, 1.0311,-0.0154,-0.6028
09-Sep-2020 11:01:38.325, 0.9943, 0.1421,-1.1109, 1.5418,-0.1580, 0.2893, 1.0269,-0.0101,-0.6087
09-Sep-2020 11:01:38.335, 0.8397, 0.1075,-0.9284, 1.9153, 0.4513, 0.3447, 1.0255, 0.0002,-0.6201
09-Sep-2020 11:01:38.345, 0.7504, 0.0271,-0.6906, 1.8531, 1.0524, 0.2415, 1.0300, 0.0129,-0.6345
09-Sep-2020 11:01:38.355, 0.6015,-0.0782,-0.3214, 1.3164, 1.2740,-0.0695, 1.0405, 0.0242,-0.6489
09-Sep-2020 11:01:38.365, 0.4471,-0.1679,-0.0522, 0.5844, 0.9942,-0.5051, 1.0531, 0.0301,-0.6605
09-Sep-2020 11:01:38.375, 0.4754,-0.2423, 0.0979,-0.1998, 0.4941,-0.8648, 1.0631, 0.0286,-0.6680
09-Sep-2020 11:01:38.385, 0.6087,-0.2632, 0.1079,-0.8262, 0.0209,-1.0440, 1.0681, 0.0204,-0.6704
09-Sep-2020 11:01:38.395, 0.7656,-0.2025,-0.0807,-1.0855,-0.2782,-1.0496, 1.0684, 0.0076,-0.6684
09-Sep-2020 11:01:38.405, 0.8726,-0.1132,-0.3326,-1.0188,-0.3456,-0.9330, 1.0658,-0.0065,-0.6641
09-Sep-2020 11:01:38.415, 0.9158,-0.0492,-0.5015,-0.8132,-0.1908,-0.7276, 1.0625,-0.0194,-0.6598
09-Sep-2020 11:01:38.425, 0.8746,-0.0031,-0.5486,-0.5612, 0.0997,-0.5965, 1.0608,-0.0296,-0.6563
09-Sep-2020 11:01:38.435, 0.7088, 0.0422,-0.5271,-0.3452, 0.3343,-0.6461, 1.0618,-0.0375,-0.6543
09-Sep-2020 11:01:38.445, 0.5555, 0.0616,-0.4607,-0.2043, 0.4403,-0.7626, 1.0650,-0.0448,-0.6544
09-Sep-2020 11:01:38.455, 0.5450, 0.0544,-0.4172,-0.1108, 0.3992,-0.9291, 1.0692,-0.0524,-0.6563
09-Sep-2020 11:01:38.465, 0.4503, 0.1082,-0.3696,-0.1107, 0.4493,-1.2722, 1.0730,-0.0611,-0.6598
09-Sep-2020 11:01:38.475, 0.3378, 0.1347,-0.3047,-0.1520, 0.5711,-1.6446, 1.0772,-0.0727,-0.6648
09-Sep-2020 11:01:38.485, 0.4010, 0.1214,-0.3011,-0.1868, 0.7077,-1.9221, 1.0823,-0.0877,-0.6712
09-Sep-2020 11:01:38.495, 0.5375, 0.1131,-0.2763,-0.2773, 0.7995,-2.1445, 1.0887,-0.1054,-0.6784
09-Sep-2020 11:01:38.505, 0.6475, 0.0695,-0.3058,-0.4005, 0.6491,-2.2275, 1.0955,-0.1255,-0.6858
09-Sep-2020 11:01:38.514, 0.9403, 0.0211,-0.2481,-0.6229, 0.5420,-2.0820, 1.1011,-0.1469,-0.6923
09-Sep-2020 11:01:38.524, 1.2069, 0.0298,-0.2594,-0.8912, 0.2170,-1.8411, 1.1058,-0.1681,-0.6961
09-Sep-2020 11:01:38.534, 1.3062, 0.0512,-0.3713,-1.1264,-0.0934,-1.5805, 1.1079,-0.1883,-0.6963
09-Sep-2020 11:01:38.544, 1.2733, 0.0815,-0.4570,-1.2778,-0.3329,-1.4246, 1.1076,-0.2074,-0.6934
09-Sep-2020 11:01:38.555, 1.1055, 0.1441,-0.5754,-1.3358,-0.3328,-1.4435, 1.1056,-0.2258,-0.6883
09-Sep-2020 11:01:38.564, 0.9349, 0.1961,-0.5512,-1.3677,-0.2625,-1.5599, 1.1036,-0.2445,-0.6828
09-Sep-2020 11:01:38.574, 0.8734, 0.2290,-0.4564,-1.4605,-0.1452,-1.6870, 1.1024,-0.2645,-0.6775
09-Sep-2020 11:01:38.584, 0.8322, 0.2421,-0.3200,-1.5539,-0.0926,-1.7666, 1.1025,-0.2859,-0.6718
09-Sep-2020 11:01:38.594, 0.7859, 0.2470,-0.2941,-1.6572,-0.0913,-1.8533, 1.1033,-0.3085,-0.6657
09-Sep-2020 11:01:38.604, 0.6693, 0.2621,-0.2572,-1.7436, 0.0459,-1.9593, 1.1046,-0.3323,-0.6589
09-Sep-2020 11:01:38.614, 0.6037, 0.3204,-0.2388,-1.7925,-0.0893,-2.0942, 1.1073,-0.3574,-0.6517
09-Sep-2020 11:01:38.624, 0.5354, 0.3762,-0.2484,-1.8764, 0.2219,-2.1839, 1.1093,-0.3839,-0.6445
09-Sep-2020 11:01:38.634, 0.5734, 0.4938,-0.1563,-1.8609, 1.2425,-2.2224, 1.1150,-0.4116,-0.6369
09-Sep-2020 11:01:38.644, 0.6542, 0.6436,-0.3619,-1.4985, 2.0085,-2.1529, 1.1303,-0.4393,-0.6292
09-Sep-2020 11:01:38.654, 0.8203, 0.7229,-0.6354,-0.7657, 2.3636,-1.9962, 1.1522,-0.4648,-0.6243
09-Sep-2020 11:01:38.664, 0.9289, 0.7355,-0.6873, 0.0304, 2.4958,-1.7455, 1.1751,-0.4859,-0.6254
09-Sep-2020 11:01:38.674, 0.9637, 0.6687,-0.5941, 0.5252, 2.4079,-1.4067, 1.1961,-0.5018,-0.6329
09-Sep-2020 11:01:38.684, 1.0134, 0.5291,-0.3616, 0.5377, 2.3144,-1.2092, 1.2147,-0.5132,-0.6439
09-Sep-2020 11:01:38.693, 1.0011, 0.4673,-0.1117, 0.2715, 2.1182,-1.1088, 1.2326,-0.5227,-0.6543
09-Sep-2020 11:01:38.704, 0.9937, 0.4984,-0.0717,-0.0054, 1.7170,-1.0684, 1.2499,-0.5322,-0.6614
09-Sep-2020 11:01:38.713, 0.9681, 0.5895,-0.2130,-0.1129, 1.2654,-1.0980, 1.2650,-0.5423,-0.6653
09-Sep-2020 11:01:38.723, 0.9572, 0.6328,-0.3076,-0.0987, 0.9344,-1.1530, 1.2763,-0.5530,-0.6679
09-Sep-2020 11:01:38.734, 0.8943, 0.6561,-0.2961,-0.0208, 0.7533,-1.1976, 1.2842,-0.5641,-0.6708
09-Sep-2020 11:01:38.743, 0.8816, 0.6692,-0.2843, 0.0851, 0.6287,-1.1766, 1.2896,-0.5755,-0.6745
09-Sep-2020 11:01:38.753, 0.8264, 0.6749,-0.2392, 0.1930, 0.5893,-1.2424, 1.2933,-0.5865,-0.6794
09-Sep-2020 11:01:38.763, 0.6786, 0.6909,-0.2173, 0.3709, 0.6173,-1.3171, 1.2956,-0.5978,-0.6858
09-Sep-2020 11:01:38.773, 0.6496, 0.7267,-0.2599, 0.5929, 0.8467,-1.4187, 1.2970,-0.6093,-0.6945
09-Sep-2020 11:01:38.783, 0.5852, 0.7298,-0.2572, 0.7622, 1.0717,-1.5658, 1.2987,-0.6213,-0.7061
09-Sep-2020 11:01:38.793, 0.5745, 0.6823,-0.1894, 0.7578, 1.1306,-1.6649, 1.3010,-0.6342,-0.7202
09-Sep-2020 11:01:38.803, 0.6649, 0.6547,-0.0906, 0.5352, 0.8010,-1.7801, 1.3034,-0.6481,-0.7346
09-Sep-2020 11:01:38.813, 0.8080, 0.6723,-0.1103, 0.4070, 0.4331,-1.7891, 1.3037,-0.6636,-0.7470
09-Sep-2020 11:01:38.823, 0.9518, 0.6332,-0.2076, 0.4063, 0.2854,-1.6585, 1.3013,-0.6796,-0.7581
09-Sep-2020 11:01:38.833, 0.9226, 0.6274,-0.2459, 0.4865, 0.0108,-1.7004, 1.2971,-0.6943,-0.7690
09-Sep-2020 11:01:38.843, 0.5512, 0.8034,-0.3121, 0.6270,-0.1269,-1.9058, 1.2895,-0.7093,-0.7813
09-Sep-2020 11:01:38.852, 0.5167, 0.7944,-0.2560, 0.6270,-0.1269,-1.9058, 1.2787,-0.7256,-0.7962
09-Sep-2020 11:01:38.863, 0.5849, 0.6504,-0.1185, 0.8010, 0.5928,-1.8842, 1.2694,-0.7419,-0.8134
09-Sep-2020 11:01:38.873, 0.6592, 0.5215,-0.0610, 0.7316, 0.7432,-1.7541, 1.2629,-0.7573,-0.8313
09-Sep-2020 11:01:38.882, 0.7081, 0.4619, 0.0294, 0.5406, 0.8414,-1.6505, 1.2586,-0.7717,-0.8482
09-Sep-2020 11:01:38.892, 0.7571, 0.4484, 0.0556, 0.3012, 0.8939,-1.5689, 1.2569,-0.7856,-0.8625
09-Sep-2020 11:01:38.903, 0.8302, 0.4366, 0.0236, 0.1127, 0.9136,-1.4542, 1.2579,-0.7994,-0.8735
09-Sep-2020 11:01:38.913, 0.9476, 0.4036,-0.0618, 0.0305, 0.8916,-1.2521, 1.2612,-0.8127,-0.8815
09-Sep-2020 11:01:38.922, 1.0345, 0.4065,-0.1149,-0.0442, 0.8596,-1.0205, 1.2657,-0.8244,-0.8874
09-Sep-2020 11:01:38.932, 1.0428, 0.4459,-0.1040,-0.2009, 0.7830,-0.8991, 1.2714,-0.8342,-0.8913
09-Sep-2020 11:01:38.942, 0.9514, 0.5363,-0.1433,-0.4182, 0.5296,-1.0074, 1.2782,-0.8434,-0.8923
09-Sep-2020 11:01:38.952, 0.7930, 0.6475,-0.2217,-0.6184, 0.1686,-1.2383, 1.2846,-0.8542,-0.8907
09-Sep-2020 11:01:38.962, 0.6529, 0.6961,-0.2316,-0.7826,-0.0707,-1.4812, 1.2892,-0.8677,-0.8870
09-Sep-2020 11:01:38.972, 0.5760, 0.7125,-0.1868,-0.8845,-0.0271,-1.6392, 1.2928,-0.8839,-0.8817
09-Sep-2020 11:01:38.982, 0.5728, 0.7049,-0.1615,-0.8889, 0.1712,-1.7022, 1.2975,-0.9018,-0.8754
09-Sep-2020 11:01:38.992, 0.5758, 0.6988,-0.1295,-0.9061, 0.3995,-1.7270, 1.3045,-0.9204,-0.8688
09-Sep-2020 11:01:39.002, 0.6039, 0.7501,-0.1167,-0.8331, 0.3647,-1.6648, 1.3138,-0.9392,-0.8618
09-Sep-2020 11:01:39.012, 0.5763, 0.6895,-0.2382,-0.7366, 0.1695,-1.7425, 1.3226,-0.9573,-0.8553
09-Sep-2020 11:01:39.022, 0.4864, 0.7027,-0.2147,-0.7063,-0.1436,-1.8958, 1.3284,-0.9759,-0.8501
09-Sep-2020 11:01:39.032, 0.5572, 0.7322,-0.2253,-0.7087,-0.4357,-1.9198, 1.3305,-0.9957,-0.8459
09-Sep-2020 11:01:39.042, 0.5956, 0.7670,-0.2491,-0.6871,-0.4998,-1.8062, 1.3299,-1.0158,-0.8416
09-Sep-2020 11:01:39.052, 0.5155, 0.8364,-0.1840,-0.6312,-0.2817,-1.6055, 1.3290,-1.0347,-0.8371
09-Sep-2020 11:01:39.062, 0.4544, 0.8442,-0.0871,-0.5598, 0.0302,-1.4626, 1.3301,-1.0517,-0.8327
09-Sep-2020 11:01:39.072, 0.4075, 0.8166, 0.0002,-0.5616, 0.1677,-1.4286, 1.3338,-1.0672,-0.8286
09-Sep-2020 11:01:39.081, 0.3706, 0.7978, 0.0349,-0.6001, 0.0940,-1.4128, 1.3392,-1.0822,-0.8241
09-Sep-2020 11:01:39.092, 0.4753, 0.7674,-0.0152,-0.6456, 0.2724,-1.2288, 1.3454,-1.0971,-0.8184
09-Sep-2020 11:01:39.101, 0.6103, 0.7449, 0.0488,-0.7564, 0.6160,-0.9428, 1.3554,-1.1103,-0.8104
09-Sep-2020 11:01:39.111, 0.6543, 0.6791, 0.1835,-1.1862, 1.1406,-0.7695, 1.3731,-1.1211,-0.7976
09-Sep-2020 11:01:39.121, 0.4483, 0.8543, 0.5360,-1.8790, 1.5205,-1.1169, 1.4059,-1.1312,-0.7737
09-Sep-2020 11:01:39.131, 0.2153, 0.7972, 0.4460,-2.1901, 1.2551,-1.4988, 1.4569,-1.1447,-0.7338
09-Sep-2020 11:01:39.141, 0.3384, 0.5488,-0.3247,-1.7159,-0.1941,-1.6310, 1.5130,-1.1611,-0.6849
09-Sep-2020 11:01:39.151, 0.3482, 0.6857,-0.6716,-1.2738,-0.8367,-1.7518, 1.5507,-1.1780,-0.6427
09-Sep-2020 11:01:39.161, 0.1273, 0.8598,-0.1706,-1.2514,-0.6143,-1.7277, 1.5745,-1.1953,-0.6086
09-Sep-2020 11:01:39.172, 0.1428, 0.9341, 0.0773,-1.4625,-0.0909,-1.6515, 1.6020,-1.2122,-0.5727
09-Sep-2020 11:01:39.181, 0.2238, 0.9952, 0.1499,-1.5976, 0.0965,-1.6049, 1.6426,-1.2278,-0.5283
09-Sep-2020 11:01:39.191, 0.2577, 1.0535, 0.1071,-1.5807,-0.0038,-1.4793, 1.6927,-1.2421,-0.4760
09-Sep-2020 11:01:39.202, 0.2827, 1.1072, 0.0302,-1.3847,-0.0929,-1.3213, 1.7452,-1.2543,-0.4206
09-Sep-2020 11:01:39.211, 0.2980, 1.1320, 0.0652,-1.1006,-0.1330,-1.1811, 1.7940,-1.2644,-0.3684
09-Sep-2020 11:01:39.221, 0.3451, 1.0788, 0.0764,-0.7795,-0.1895,-1.0810, 1.8357,-1.2731,-0.3233
09-Sep-2020 11:01:39.231, 0.3978, 1.0102, 0.0350,-0.4583,-0.4112,-1.1004, 1.8681,-1.2813,-0.2874
09-Sep-2020 11:01:39.241, 0.4063, 1.0058,-0.0102,-0.2175,-0.5698,-1.1019, 1.8902,-1.2903,-0.2602
09-Sep-2020 11:01:39.251, 0.3822, 0.9385, 0.0076, 0.0010,-0.4960,-1.0586, 1.9041,-1.2999,-0.2400
09-Sep-2020 11:01:39.261, 0.3445, 0.9038, 0.0286, 0.2413,-0.3071,-1.0137, 1.9117,-1.3098,-0.2270
09-Sep-2020 11:01:39.271, 0.3103, 0.8735, 0.0218, 0.4422,-0.0687,-0.9138, 1.9127,-1.3200,-0.2228
09-Sep-2020 11:01:39.281, 0.2801, 0.8198, 0.0116, 0.6142, 0.1904,-0.8200, 1.9075,-1.3300,-0.2276
09-Sep-2020 11:01:39.290, 0.2380, 0.7878,-0.0046, 0.7669, 0.4134,-0.8018, 1.8962,-1.3397,-0.2411
09-Sep-2020 11:01:39.300, 0.2049, 0.7444,-0.0264, 0.8464, 0.4743,-0.8368, 1.8795,-1.3496,-0.2623
09-Sep-2020 11:01:39.310, 0.1813, 0.6811,-0.0494, 0.9169, 0.3468,-0.9070, 1.8583,-1.3600,-0.2887
09-Sep-2020 11:01:39.320, 0.1596, 0.6040,-0.0609, 1.0387, 0.0828,-0.9873, 1.8308,-1.3711,-0.3202
09-Sep-2020 11:01:39.330, 0.1342, 0.5116,-0.0635, 1.2029,-0.2578,-1.0931, 1.7920,-1.3831,-0.3606
09-Sep-2020 11:01:39.340, 0.0987, 0.4115,-0.0551, 1.3450,-0.6692,-1.3018, 1.7364,-1.3961,-0.4144
09-Sep-2020 11:01:39.350, 0.0552, 0.3418,-0.0379, 1.3017,-1.1838,-1.5434, 1.6615,-1.4106,-0.4835
09-Sep-2020 11:01:39.360, 0.0220, 0.2758,-0.0004, 1.0047,-1.5911,-1.6753, 1.5715,-1.4264,-0.5627
09-Sep-2020 11:01:39.370, 0.0203, 0.3501, 0.2429,-0.1569,-1.2735,-1.6755, 1.4839,-1.4425,-0.6360
09-Sep-2020 11:01:39.380, 0.0301, 0.5236, 0.6412,-0.8089,-1.8691,-1.2223, 1.4585,-1.4586,-0.6483
09-Sep-2020 11:01:39.390, 0.1399, 0.1234, 0.1667,-1.3672,-2.1095,-0.7778, 1.4975,-1.4715,-0.5912
09-Sep-2020 11:01:39.400, 0.0142, 0.2140, 0.8522,-2.1387,-0.7533,-0.7066, 1.6267,-1.4797,-0.4424
09-Sep-2020 11:01:39.410,-0.0447, 0.2796, 0.5668,-1.9612,-0.3178,-0.7226, 1.8636,-1.4830,-0.1964
09-Sep-2020 11:01:39.420,-0.0373, 0.4107,-0.1188,-1.3674,-0.5190,-0.7522, 2.0905,-1.4820, 0.0353
09-Sep-2020 11:01:39.430,-0.0842, 0.7100, 0.0858,-0.9466, 0.9191,-0.8369, 2.2578,-1.4805, 0.2059
09-Sep-2020 11:01:39.440,-0.0522, 1.4039,-0.0707,-0.4137, 1.0149,-1.2961, 2.3966,-1.4810, 0.3369
09-Sep-2020 11:01:39.450, 0.0996, 4.7673,-0.0343,-0.4363, 1.0245,-1.5437, 2.5482,-1.4856, 0.4783
09-Sep-2020 11:01:39.460, 0.5807, 5.3680, 0.3243,-0.5336, 1.1812,-1.2558, 2.7433,-1.4883, 0.6620
09-Sep-2020 11:01:39.470, 0.4176, 3.8034,-0.1536,-0.1135, 0.7501,-0.9700, 2.9156,-1.4872, 0.8231
09-Sep-2020 11:01:39.480, 0.0818, 2.4111,-0.3352, 0.3448, 0.4452,-0.8259, 3.0394,-1.4878, 0.9398
09-Sep-2020 11:01:39.490,-0.0099, 1.2945,-0.2518, 0.7276, 0.2576,-0.7832,-3.1406,-1.4916, 1.0388
09-Sep-2020 11:01:39.500,-0.0691, 0.7535,-0.2263, 1.0571, 0.0770,-0.8351,-3.0303,-1.4985, 1.1469
09-Sep-2020 11:01:39.510,-0.1308, 0.5404,-0.1776, 1.2735, 0.0129,-0.9274,-2.8812,-1.5072, 1.2955
09-Sep-2020 11:01:39.519,-0.1334, 0.4848,-0.0710, 1.3433, 0.1502,-0.9577,-2.6602,-1.5157, 1.5166
09-Sep-2020 11:01:39.529,-0.0927, 0.4874, 0.0144, 1.3034, 0.3274,-0.9519,-2.3621,-1.5210, 1.8136
09-Sep-2020 11:01:39.539,-0.0809, 0.5640, 0.0584, 1.1565, 0.5822,-0.9415,-2.0361,-1.5210, 2.1367
09-Sep-2020 11:01:39.549,-0.0833, 0.6559, 0.1376, 0.8696, 0.8845,-0.9454,-1.7651,-1.5159, 2.4022
09-Sep-2020 11:01:39.559,-0.0844, 0.7675, 0.1464, 0.0299, 0.4954,-1.0815,-1.6002,-1.5074, 2.5593
09-Sep-2020 11:01:39.570,-0.0716, 0.8914, 0.1809,-0.6405, 0.8224,-1.0631,-1.5828,-1.4969, 2.5707
09-Sep-2020 11:01:39.579,-0.1162, 0.8950, 0.3315,-0.7120, 1.1610,-0.9322,-1.6444,-1.4862, 2.5008
09-Sep-2020 11:01:39.589,-0.1737, 1.0212, 0.2755,-0.2463, 1.4848,-0.7398,-1.6963,-1.4764, 2.4369
09-Sep-2020 11:01:39.599,-0.2070, 1.1120, 0.1777, 0.1032, 1.1894,-0.5799,-1.6981,-1.4688, 2.4207
09-Sep-2020 11:01:39.609,-0.2377, 1.1618, 0.0192, 0.1747, 0.4587,-0.5606,-1.6720,-1.4631, 2.4353
09-Sep-2020 11:01:39.619,-0.2839, 1.1746,-0.0390, 0.0833,-0.2671,-0.6206,-1.6481,-1.4577, 2.4547
09-Sep-2020 11:01:39.629,-0.2723, 1.0761, 0.0128, 0.0098,-0.6090,-0.6319,-1.6392,-1.4517, 2.4661
09-Sep-2020 11:01:39.639,-0.2344, 0.9466, 0.0938, 0.1254,-0.4758,-0.5341,-1.6393,-1.4456, 2.4718
09-Sep-2020 11:01:39.649,-0.2127, 0.8993, 0.1112, 0.2859,-0.2169,-0.3952,-1.6309,-1.4405, 2.4849
09-Sep-2020 11:01:39.659,-0.2149, 0.9445, 0.0535, 0.2185,-0.2394,-0.3515,-1.6113,-1.4367, 2.5070
09-Sep-2020 11:01:39.669,-0.2013, 1.0114,-0.0131, 0.0442,-0.3923,-0.3234,-1.5973,-1.4334, 2.5237
09-Sep-2020 11:01:39.679,-0.1959, 1.0069,-0.0634,-0.0807,-0.5628,-0.2555,-1.5969,-1.4303, 2.5280
09-Sep-2020 11:01:39.689,-0.2346, 0.9762,-0.0697,-0.1514,-0.6685,-0.1742,-1.6071,-1.4278, 2.5233
09-Sep-2020 11:01:39.699,-0.2586, 0.9554,-0.0373,-0.1743,-0.7008,-0.1201,-1.6232,-1.4260, 2.5137
09-Sep-2020 11:01:39.708,-0.2588, 0.9475,-0.0162,-0.1581,-0.7246,-0.0771,-1.6413,-1.4248, 2.5025
09-Sep-2020 11:01:39.719,-0.2403, 0.9442,-0.0141,-0.0876,-0.7532,-0.0478,-1.6583,-1.4240, 2.4926
09-Sep-2020 11:01:39.729,-0.2352, 0.9603,-0.0170, 0.0029,-0.7873,-0.0569,-1.6710,-1.4235, 2.4873
09-Sep-2020 11:01:39.738,-0.2238, 0.9783,-0.0078, 0.0674,-0.8222,-0.0591,-1.6782,-1.4230, 2.4881
09-Sep-2020 11:01:39.748,-0.2036, 0.9856, 0.0230, 0.0611,-0.8463,-0.0345,-1.6815,-1.4226, 2.4929
09-Sep-2020 11:01:39.758,-0.1891, 0.9968, 0.0557,-0.0078,-0.8587,-0.0120,-1.6857,-1.4224, 2.4973
09-Sep-2020 11:01:39.769,-0.1759, 1.0045, 0.0715,-0.0078,-0.8587,-0.0120,-1.6945,-1.4223, 2.4970
09-Sep-2020 11:01:39.778,-0.1605, 0.9979, 0.0629,-0.1752,-0.8966, 0.0030,-1.7094,-1.4223, 2.4908
09-Sep-2020 11:01:39.788,-0.1431, 0.9968, 0.0399,-0.2220,-0.9095,-0.0011,-1.7295,-1.4221, 2.4795
09-Sep-2020 11:01:39.798,-0.1270, 1.0022, 0.0192,-0.2207,-0.9074,-0.0096,-1.7526,-1.4218, 2.4653
09-Sep-2020 11:01:39.808,-0.1193, 1.0044, 0.0047,-0.2007,-0.8928,-0.0393,-1.7755,-1.4214, 2.4513
09-Sep-2020 11:01:39.818,-0.1103, 0.9926,-0.0059,-0.1868,-0.9071,-0.0648,-1.7967,-1.4207, 2.4389
09-Sep-2020 11:01:39.828,-0.1043, 0.9805,-0.0157,-0.1466,-0.9076,-0.0559,-1.8164,-1.4197, 2.4280
09-Sep-2020 11:01:39.838,-0.1010, 0.9848,-0.0019,-0.1097,-0.8578,-0.0570,-1.8336,-1.4189, 2.4197
09-Sep-2020 11:01:39.848,-0.0996, 1.0014, 0.0157,-0.0780,-0.7959,-0.0707,-1.8479,-1.4181, 2.4139
09-Sep-2020 11:01:39.858,-0.1007, 1.0205, 0.0218,-0.0401,-0.7149,-0.0830,-1.8593,-1.4173, 2.4105
09-Sep-2020 11:01:39.868,-0.1050, 1.0274, 0.0295,-0.0188,-0.6355,-0.0725,-1.8674,-1.4165, 2.4095
09-Sep-2020 11:01:39.879,-0.1088, 1.0226, 0.0521,-0.0146,-0.5694,-0.0559,-1.8735,-1.4158, 2.4097
09-Sep-2020 11:01:39.888,-0.1173, 1.0229, 0.0808,-0.0248,-0.5364,-0.0368,-1.8790,-1.4153, 2.4099
09-Sep-2020 11:01:39.898,-0.1268, 1.0188, 0.0954,-0.0481,-0.5618,-0.0364,-1.8852,-1.4150, 2.4091
09-Sep-2020 11:01:39.908,-0.1405, 1.0127, 0.0893,-0.0902,-0.6590,-0.0586,-1.8930,-1.4145, 2.4068
09-Sep-2020 11:01:39.918,-0.1504, 1.0171, 0.0743,-0.1050,-0.8264,-0.0751,-1.9038,-1.4138, 2.4027
09-Sep-2020 11:01:39.927,-0.1548, 1.0115, 0.0503,-0.0597,-1.0073,-0.0552,-1.9164,-1.4129, 2.3982
09-Sep-2020 11:01:39.938,-0.1598, 0.9971, 0.0622,-0.0111,-1.1223,-0.0066,-1.9286,-1.4122, 2.3960
09-Sep-2020 11:01:39.947,-0.1678, 1.0090, 0.0929,-0.0101,-1.2587, 0.0337,-1.9404,-1.4122, 2.3954
09-Sep-2020 11:01:39.957,-0.1806, 1.0089, 0.0970,-0.0416,-1.4176, 0.0372,-1.9544,-1.4125, 2.3939
09-Sep-2020 11:01:39.967,-0.2137, 1.0084, 0.0980,-0.0655,-1.5342,-0.0060,-1.9716,-1.4128, 2.3908
09-Sep-2020 11:01:39.977,-0.2413, 1.0015, 0.0992,-0.0733,-1.5779,-0.0622,-1.9903,-1.4125, 2.3873
09-Sep-2020 11:01:39.987,-0.2583, 0.9975, 0.1149,-0.0949,-1.5725,-0.1134,-2.0086,-1.4117, 2.3846
09-Sep-2020 11:01:39.997,-0.2653, 1.0036, 0.1331,-0.1011,-1.5171,-0.1424,-2.0265,-1.4104, 2.3823
09-Sep-2020 11:01:40.007,-0.2618, 0.9927, 0.1486,-0.1032,-1.4276,-0.1607,-2.0432,-1.4088, 2.3807
09-Sep-2020 11:01:40.017,-0.2590, 0.9945, 0.1626,-0.1544,-1.3495,-0.1904,-2.0586,-1.4070, 2.3795
09-Sep-2020 11:01:40.027,-0.2745, 1.0109, 0.1745,-0.2374,-1.2595,-0.2226,-2.0747,-1.4046, 2.3767
09-Sep-2020 11:01:40.037,-0.2846, 1.0131, 0.1842,-0.3078,-1.1937,-0.2605,-2.0930,-1.4016, 2.3709
09-Sep-2020 11:01:40.047,-0.2709, 1.0003, 0.1646,-0.3259,-1.1880,-0.2939,-2.1124,-1.3979, 2.3633
09-Sep-2020 11:01:40.057,-0.2377, 0.9709, 0.1310,-0.2942,-1.2276,-0.3134,-2.1310,-1.3939, 2.3564
09-Sep-2020 11:01:40.067,-0.1969, 0.9338, 0.1025,-0.2496,-1.2555,-0.3062,-2.1477,-1.3897, 2.3519
09-Sep-2020 11:01:40.077,-0.1708, 0.9061, 0.0800,-0.2053,-1.2454,-0.2864,-2.1623,-1.3859, 2.3497
09-Sep-2020 11:01:40.087,-0.1494, 0.8995, 0.0518,-0.1733,-1.1400,-0.2259,-2.1753,-1.3825, 2.3491
09-Sep-2020 11:01:40.097,-0.1267, 0.8403, 0.0347,-0.1677,-0.9623,-0.2135,-2.1873,-1.3797, 2.3483
09-Sep-2020 11:01:40.107,-0.1021, 0.8287, 0.0229,-0.1672,-0.7644,-0.2180,-2.1975,-1.3771, 2.3477
09-Sep-2020 11:01:40.117,-0.0595, 0.8503, 0.0134,-0.1776,-0.5115,-0.1935,-2.2055,-1.3745, 2.3473
09-Sep-2020 11:01:40.127,-0.0173, 0.8829, 0.0236,-0.1703,-0.1982,-0.1341,-2.2119,-1.3720, 2.3459
09-Sep-2020 11:01:40.136, 0.0313, 0.9382, 0.0429,-0.1161, 0.1092,-0.0425,-2.2166,-1.3700, 2.3431
09-Sep-2020 11:01:40.146, 0.0924, 1.0171, 0.0667,-0.0211, 0.2842, 0.0850,-2.2189,-1.3691, 2.3397
09-Sep-2020 11:01:40.156, 0.1579, 1.1117, 0.0890, 0.0687, 0.1989, 0.2355,-2.2198,-1.3697, 2.3362
09-Sep-2020 11:01:40.167, 0.2318, 1.1804, 0.1089, 0.1112,-0.2157, 0.3837,-2.2224,-1.3721, 2.3316
09-Sep-2020 11:01:40.176, 0.2694, 1.2069, 0.1486, 0.0415,-0.9254, 0.4220,-2.2323,-1.3758, 2.3240
09-Sep-2020 11:01:40.186, 0.2285, 1.1454, 0.2038,-0.0183,-1.4312, 0.2900,-2.2528,-1.3793, 2.3123
09-Sep-2020 11:01:40.196, 0.0986, 1.0255, 0.2885, 0.0446,-1.4690, 0.1030,-2.2767,-1.3815, 2.3022
09-Sep-2020 11:01:40.206,-0.0273, 0.9451, 0.3564, 0.0446,-1.4690, 0.1030,-2.2936,-1.3827, 2.2998
09-Sep-2020 11:01:40.216,-0.0985, 0.9160, 0.3714,-0.0464,-1.4259, 0.0638,-2.3069,-1.3838, 2.3004
09-Sep-2020 11:01:40.226,-0.1437, 0.8877, 0.3508,-0.1857,-1.3955, 0.0638,-2.3252,-1.3840, 2.2962
09-Sep-2020 11:01:40.236,-0.1631, 0.9026, 0.3164,-0.2756,-1.1744, 0.0257,-2.3483,-1.3833, 2.2867
09-Sep-2020 11:01:40.246,-0.1399, 0.9225, 0.2676,-0.3489,-0.8226,-0.0028,-2.3711,-1.3816, 2.2753
09-Sep-2020 11:01:40.256,-0.0982, 0.9115, 0.2121,-0.4398,-0.4444,-0.0247,-2.3917,-1.3791, 2.2626
09-Sep-2020 11:01:40.266,-0.0624, 0.8980, 0.1597,-0.5489,-0.0900,-0.0497,-2.4105,-1.3758, 2.2480
09-Sep-2020 11:01:40.276,-0.0352, 0.8773, 0.1127,-0.6788, 0.1991,-0.0901,-2.4279,-1.3714, 2.2313
09-Sep-2020 11:01:40.286,-0.0159, 0.8398, 0.0714,-0.7824, 0.4559,-0.0964,-2.4441,-1.3658, 2.2127
09-Sep-2020 11:01:40.296, 0.0126, 0.8080, 0.0348,-0.7012, 0.8124,-0.0792,-2.4592,-1.3594, 2.1926
09-Sep-2020 11:01:40.306, 0.0255, 0.8229, 0.0162,-0.4616, 1.2696,-0.0699,-2.4682,-1.3536, 2.1751
09-Sep-2020 11:01:40.316, 0.0234, 0.8609,-0.0005,-0.1941, 1.6881,-0.0651,-2.4661,-1.3496, 2.1643
09-Sep-2020 11:01:40.326, 0.0134, 0.8859,-0.0121, 0.0370, 1.9948,-0.0472,-2.4527,-1.3478, 2.1609
09-Sep-2020 11:01:40.336,-0.0092, 0.9128,-0.0169, 0.1949, 2.1655,-0.0258,-2.4306,-1.3478, 2.1632
09-Sep-2020 11:01:40.345,-0.0463, 0.9380,-0.0240, 0.3105, 2.2061,-0.0276,-2.4028,-1.3491, 2.1698
09-Sep-2020 11:01:40.355,-0.0907, 0.9493,-0.0383, 0.4244, 2.1391,-0.0575,-2.3706,-1.3513, 2.1803
09-Sep-2020 11:01:40.366,-0.1284, 0.9590,-0.0572, 0.5294, 1.9536,-0.1079,-2.3342,-1.3539, 2.1959
09-Sep-2020 11:01:40.375,-0.1585, 0.9612,-0.0704, 0.6498, 1.7019,-0.1437,-2.2939,-1.3568, 2.2173
09-Sep-2020 11:01:40.385,-0.1836, 0.9800,-0.0545, 0.7769, 1.4469,-0.1614,-2.2499,-1.3599, 2.2450
09-Sep-2020 11:01:40.395,-0.2165, 1.0251,-0.0042, 0.9318, 1.2264,-0.1659,-2.2020,-1.3635, 2.2793
09-Sep-2020 11:01:40.405,-0.2709, 1.0843, 0.0867, 1.0035, 0.9536,-0.2269,-2.1489,-1.3674, 2.3211
09-Sep-2020 11:01:40.415,-0.3438, 1.1364, 0.1933, 0.9628, 0.5806,-0.3317,-2.0923,-1.3707, 2.3692
09-Sep-2020 11:01:40.425,-0.4096, 1.1965, 0.3003, 0.8328, 0.2956,-0.4451,-2.0371,-1.3724, 2.4196
09-Sep-2020 11:01:40.435,-0.4350, 1.2188, 0.3790, 0.6418, 0.1556,-0.5224,-1.9876,-1.3720, 2.4670
09-Sep-2020 11:01:40.445,-0.4167, 1.1582, 0.3925, 0.4304,-0.0034,-0.4981,-1.9472,-1.3698, 2.5067
09-Sep-2020 11:01:40.455,-0.3623, 1.0667, 0.3623, 0.2358,-0.0833,-0.3454,-1.9192,-1.3669, 2.5353
09-Sep-2020 11:01:40.465,-0.2838, 0.9679, 0.3156, 0.1236,-0.0931,-0.1390,-1.9036,-1.3645, 2.5521
09-Sep-2020 11:01:40.475,-0.2231, 0.8946, 0.2598, 0.0627,-0.0954,-0.0137,-1.8965,-1.3637, 2.5603
09-Sep-2020 11:01:40.485,-0.1913, 0.8656, 0.2083, 0.0322,-0.1347, 0.0018,-1.8942,-1.3638, 2.5636
09-Sep-2020 11:01:40.495,-0.1629, 0.8578, 0.1482, 0.0288,-0.2388,-0.0242,-1.8940,-1.3639, 2.5652
09-Sep-2020 11:01:40.505,-0.1398, 0.8398, 0.0916, 0.0655,-0.3286,-0.0507,-1.8945,-1.3639, 2.5672
09-Sep-2020 11:01:40.515,-0.1361, 0.8239, 0.0733, 0.1104,-0.3250,-0.0691,-1.8939,-1.3637, 2.5711
09-Sep-2020 11:01:40.525,-0.1446, 0.8613, 0.0882, 0.1207,-0.2550,-0.0933,-1.8911,-1.3635, 2.5772
09-Sep-2020 11:01:40.535,-0.1550, 0.9204, 0.1253, 0.0622,-0.1734,-0.1252,-1.8870,-1.3630, 2.5840
09-Sep-2020 11:01:40.545,-0.1459, 0.9580, 0.1499,-0.0378,-0.1402,-0.1353,-1.8842,-1.3621, 2.5886
09-Sep-2020 11:01:40.555,-0.1227, 0.9826, 0.1497,-0.1220,-0.1319,-0.1192,-1.8853,-1.3608, 2.5890
09-Sep-2020 11:01:40.565,-0.0989, 0.9991, 0.1459,-0.1800,-0.1327,-0.0917,-1.8902,-1.3594, 2.5853
09-Sep-2020 11:01:40.575,-0.0808, 1.0137, 0.1406,-0.1972,-0.1276,-0.0685,-1.8979,-1.3581, 2.5788
09-Sep-2020 11:01:40.584,-0.0656, 1.0205, 0.1242,-0.1972,-0.1276,-0.0685,-1.9066,-1.3569, 2.5713
09-Sep-2020 11:01:40.594,-0.0526, 1.0159, 0.0970,-0.1039,-0.0868,-0.0282,-1.9143,-1.3559, 2.5646
09-Sep-2020 11:01:40.605,-0.0434, 1.0028, 0.0633,-0.0317,-0.0101,-0.0227,-1.9191,-1.3554, 2.5605
09-Sep-2020 11:01:40.614,-0.0408, 0.9888, 0.0278, 0.0374, 0.1136,-0.0329,-1.9203,-1.3552, 2.5594
09-Sep-2020 11:01:40.624,-0.0500, 0.9841,-0.0098, 0.0960, 0.2829,-0.0445,-1.9172,-1.3551, 2.5613
09-Sep-2020 11:01:40.634,-0.0698, 0.9898,-0.0432, 0.0960, 0.2829,-0.0445,-1.9099,-1.3551, 2.5659
09-Sep-2020 11:01:40.644,-0.0951, 1.0001,-0.0739, 0.1772, 0.6356,-0.0554,-1.8992,-1.3553, 2.5721
09-Sep-2020 11:01:40.654,-0.1097, 1.0218,-0.0985, 0.2174, 0.7850,-0.0365,-1.8868,-1.3559, 2.5784
09-Sep-2020 11:01:40.664,-0.1192, 1.0397,-0.1075, 0.2500, 0.9259,-0.0112,-1.8690,-1.3563, 2.5887
09-Sep-2020 11:01:40.674,-0.1508, 1.0699,-0.0946, 0.2610, 1.0906,-0.0404,-1.8486,-1.3569, 2.6001
09-Sep-2020 11:01:40.684,-0.2001, 1.0566,-0.0546, 0.3468, 1.2683,-0.0726,-1.8255,-1.3573, 2.6127
09-Sep-2020 11:01:40.694,-0.2629, 1.0153,-0.0126, 0.5507, 1.4610,-0.1159,-1.7961,-1.3575, 2.6298
09-Sep-2020 11:01:40.704,-0.3353, 1.0103, 0.0935, 0.5743, 1.5607,-0.1827,-1.7563,-1.3575, 2.6558
09-Sep-2020 11:01:40.714,-0.3753, 1.0171, 0.2707, 0.3901, 1.3386,-0.1951,-1.7141,-1.3568, 2.6832
09-Sep-2020 11:01:40.724,-0.3377, 1.0316, 0.2977, 0.1774, 0.8963,-0.1127,-1.6822,-1.3555, 2.7024
09-Sep-2020 11:01:40.734,-0.2979, 1.0184, 0.2399, 0.0354, 0.4196, 0.0144,-1.6645,-1.3547, 2.7114
09-Sep-2020 11:01:40.743,-0.2890, 1.0002, 0.1931,-0.0372, 0.0217, 0.1165,-1.6584,-1.3549, 2.7134
09-Sep-2020 11:01:40.753,-0.2934, 0.9908, 0.1444,-0.0429,-0.3045, 0.1482,-1.6599,-1.3561, 2.7116
09-Sep-2020 11:01:40.764,-0.3023, 0.9777, 0.0869,-0.0180,-0.5386, 0.1313,-1.6652,-1.3576, 2.7092
09-Sep-2020 11:01:40.774,-0.3075, 0.9514, 0.0454, 0.0230,-0.6507, 0.1256,-1.6718,-1.3590, 2.7079
09-Sep-2020 11:01:40.783,-0.3104, 0.9296, 0.0253, 0.0762,-0.7108, 0.1373,-1.6776,-1.3603, 2.7086
09-Sep-2020 11:01:40.793,-0.3134, 0.9235, 0.0138, 0.0907,-0.7256, 0.1286,-1.6817,-1.3618, 2.7116
09-Sep-2020 11:01:40.803,-0.3144, 0.9332, 0.0296, 0.0367,-0.6493, 0.0840,-1.6854,-1.3633, 2.7151
09-Sep-2020 11:01:40.813,-0.3110, 0.9366, 0.0521,-0.0006,-0.5571, 0.0595,-1.6904,-1.3642, 2.7166
09-Sep-2020 11:01:40.823,-0.3065, 0.9426, 0.0472, 0.0107,-0.5676, 0.0413,-1.6961,-1.3649, 2.7165
09-Sep-2020 11:01:40.833,-0.2983, 0.9621, 0.0516,-0.0095,-0.5784, 0.0186,-1.7015,-1.3654, 2.7168
09-Sep-2020 11:01:40.843,-0.2774, 0.9758, 0.0779,-0.0749,-0.5607, 0.0128,-1.7078,-1.3656, 2.7162
09-Sep-2020 11:01:40.853,-0.2490, 0.9879, 0.0816,-0.1394,-0.5397, 0.0251,-1.7169,-1.3657, 2.7126
09-Sep-2020 11:01:40.863,-0.2212, 0.9958, 0.0602,-0.1676,-0.5174, 0.0455,-1.7288,-1.3659, 2.7060
09-Sep-2020 11:01:40.873,-0.1964, 0.9948, 0.0334,-0.1664,-0.5157, 0.0699,-1.7422,-1.3661, 2.6976
09-Sep-2020 11:01:40.883,-0.1735, 0.9881, 0.0005,-0.1387,-0.5307, 0.0914,-1.7556,-1.3666, 2.6891
09-Sep-2020 11:01:40.893,-0.1534, 0.9781,-0.0306,-0.0819,-0.5359, 0.1168,-1.7681,-1.3673, 2.6818
09-Sep-2020 11:01:40.903,-0.1311, 0.9711,-0.0543,-0.0105,-0.5152, 0.1423,-1.7783,-1.3684, 2.6769
09-Sep-2020 11:01:40.913,-0.1165, 0.9670,-0.0684, 0.0564,-0.4494, 0.1554,-1.7852,-1.3698, 2.6750
09-Sep-2020 11:01:40.923,-0.1138, 0.9690,-0.0655, 0.0999,-0.3401, 0.1408,-1.7885,-1.3715, 2.6761
09-Sep-2020 11:01:40.933,-0.1133, 0.9766,-0.0476, 0.1212,-0.1911, 0.1213,-1.7886,-1.3732, 2.6795
09-Sep-2020 11:01:40.943,-0.1095, 0.9837,-0.0287, 0.1311,-0.0293, 0.1053,-1.7859,-1.3747, 2.6842
09-Sep-2020 11:01:40.953,-0.0997, 0.9881,-0.0125, 0.1447, 0.1047, 0.1077,-1.7808,-1.3761, 2.6897
09-Sep-2020 11:01:40.963,-0.0939, 0.9916, 0.0013, 0.1543, 0.2150, 0.1309,-1.7736,-1.3775, 2.6960
09-Sep-2020 11:01:40.973,-0.0952, 0.9940, 0.0194, 0.1603, 0.2882, 0.1527,-1.7650,-1.3792, 2.7026
09-Sep-2020 11:01:40.982,-0.1013, 0.9971, 0.0454, 0.1542, 0.3379, 0.1653,-1.7554,-1.3810, 2.7094
09-Sep-2020 11:01:40.993,-0.1054, 0.9975, 0.0767, 0.1285, 0.3548, 0.1722,-1.7457,-1.3830, 2.7159
09-Sep-2020 11:01:41.002,-0.1086, 0.9993, 0.1017, 0.0953, 0.3357, 0.1819,-1.7370,-1.3850, 2.7212
09-Sep-2020 11:01:41.013,-0.1143, 1.0028, 0.1157, 0.0611, 0.2867, 0.1861,-1.7301,-1.3870, 2.7248
09-Sep-2020 11:01:41.022,-0.1215, 1.0083, 0.1176, 0.0308, 0.2037, 0.1895,-1.7255,-1.3890, 2.7267
09-Sep-2020 11:01:41.032,-0.1320, 1.0092, 0.1107, 0.0063, 0.1169, 0.1931,-1.7232,-1.3910, 2.7270
09-Sep-2020 11:01:41.042,-0.1461, 1.0076, 0.1015,-0.0135, 0.0376, 0.1902,-1.7232,-1.3930, 2.7258
09-Sep-2020 11:01:41.052,-0.1630, 1.0014, 0.0851,-0.0372,-0.0403, 0.1925,-1.7251,-1.3950, 2.7235
09-Sep-2020 11:01:41.062,-0.1710, 0.9946, 0.0659,-0.0488,-0.1100, 0.1939,-1.7291,-1.3969, 2.7199
09-Sep-2020 11:01:41.072,-0.1703, 0.9901, 0.0496,-0.0521,-0.1517, 0.1976,-1.7345,-1.3988, 2.7155
09-Sep-2020 11:01:41.082,-0.1675, 0.9855, 0.0396,-0.0494,-0.1523, 0.1941,-1.7407,-1.4007, 2.7107
09-Sep-2020 11:01:41.092,-0.1642, 0.9831, 0.0344,-0.0531,-0.1291, 0.1907,-1.7469,-1.4026, 2.7059
09-Sep-2020 11:01:41.102,-0.1597, 0.9812, 0.0306,-0.0561,-0.0843, 0.1903,-1.7531,-1.4045, 2.7009
09-Sep-2020 11:01:41.112,-0.1512, 0.9800, 0.0290,-0.0625,-0.0210, 0.1918,-1.7592,-1.4063, 2.6956
09-Sep-2020 11:01:41.121,-0.1429, 0.9785, 0.0317,-0.0726, 0.0480, 0.1979,-1.7652,-1.4082, 2.6897
09-Sep-2020 11:01:41.132,-0.1335, 0.9794, 0.0331,-0.0738, 0.0968, 0.2021,-1.7712,-1.4100, 2.6832
09-Sep-2020 11:01:41.142,-0.1263, 0.9827, 0.0253,-0.0717, 0.1187, 0.2035,-1.7771,-1.4119, 2.6763
09-Sep-2020 11:01:41.151,-0.1218, 0.9828, 0.0197,-0.0574, 0.1308, 0.2030,-1.7827,-1.4138, 2.6694
09-Sep-2020 11:01:41.162,-0.1182, 0.9832, 0.0202,-0.0424, 0.1475, 0.2023,-1.7875,-1.4158, 2.6631
09-Sep-2020 11:01:41.172,-0.1189, 0.9849, 0.0211,-0.0199, 0.1469, 0.2027,-1.7914,-1.4177, 2.6578
09-Sep-2020 11:01:41.181,-0.1205, 0.9838, 0.0148, 0.0088, 0.1310, 0.2031,-1.7938,-1.4197, 2.6539
09-Sep-2020 11:01:41.191,-0.1226, 0.9799, 0.0074, 0.0281, 0.1079, 0.2131,-1.7947,-1.4218, 2.6517
09-Sep-2020 11:01:41.201,-0.1280, 0.9742, 0.0067, 0.0426, 0.0983, 0.2204,-1.7947,-1.4240, 2.6506
09-Sep-2020 11:01:41.211,-0.1385, 0.9750, 0.0069, 0.0475, 0.0863, 0.2184,-1.7942,-1.4263, 2.6501
09-Sep-2020 11:01:41.221,-0.1534, 0.9817, 0.0084, 0.0546, 0.0763, 0.2054,-1.7933,-1.4286, 2.6502
09-Sep-2020 11:01:41.231,-0.1721, 0.9871, 0.0173, 0.0590, 0.0739, 0.1885,-1.7918,-1.4308, 2.6509
09-Sep-2020 11:01:41.241,-0.1943, 0.9926, 0.0322, 0.0554, 0.0729, 0.1640,-1.7898,-1.4328, 2.6522
09-Sep-2020 11:01:41.252,-0.2125, 0.9949, 0.0455, 0.0440, 0.0558, 0.1355,-1.7875,-1.4347, 2.6538
09-Sep-2020 11:01:41.261,-0.2282, 0.9890, 0.0600, 0.0220, 0.0006, 0.1051,-1.7857,-1.4362, 2.6551
09-Sep-2020 11:01:41.271,-0.2377, 0.9809, 0.0720,-0.0051,-0.0811, 0.0772,-1.7854,-1.4373, 2.6554
09-Sep-2020 11:01:41.281,-0.2337, 0.9689, 0.0776,-0.0229,-0.1744, 0.0659,-1.7874,-1.4382, 2.6542
09-Sep-2020 11:01:41.292,-0.2139, 0.9670, 0.0764,-0.0229,-0.2714, 0.0478,-1.7914,-1.4389, 2.6520
09-Sep-2020 11:01:41.302,-0.1873, 0.9773, 0.0740,-0.0190,-0.3339, 0.0325,-1.7961,-1.4393, 2.6500
09-Sep-2020 11:01:41.311,-0.1610, 0.9878, 0.0751,-0.0265,-0.3526, 0.0250,-1.8009,-1.4397, 2.6484
09-Sep-2020 11:01:41.321,-0.1438, 0.9928, 0.0752,-0.0432,-0.3398, 0.0245,-1.8065,-1.4398, 2.6463
09-Sep-2020 11:01:41.331,-0.1344, 0.9931, 0.0696,-0.0559,-0.3314, 0.0114,-1.8132,-1.4399, 2.6429
09-Sep-2020 11:01:41.341,-0.1281, 0.9930, 0.0571,-0.0620,-0.3366, 0.0039,-1.8207,-1.4399, 2.6387
09-Sep-2020 11:01:41.351,-0.1180, 0.9921, 0.0476,-0.0617,-0.3411,-0.0026,-1.8286,-1.4397, 2.6341
09-Sep-2020 11:01:41.361,-0.1081, 0.9916, 0.0444,-0.0530,-0.3365,-0.0009,-1.8365,-1.4392, 2.6296
09-Sep-2020 11:01:41.371,-0.0981, 0.9945, 0.0444,-0.0450,-0.3114, 0.0073,-1.8437,-1.4390, 2.6257
09-Sep-2020 11:01:41.381,-0.0878, 0.9964, 0.0455,-0.0377,-0.2784, 0.0152,-1.8502,-1.4389, 2.6223
09-Sep-2020 11:01:41.391,-0.0788, 0.9972, 0.0463,-0.0378,-0.2475, 0.0186,-1.8559,-1.4390, 2.6194
09-Sep-2020 11:01:41.401,-0.0700, 0.9990, 0.0462,-0.0362,-0.2121, 0.0274,-1.8614,-1.4392, 2.6164
09-Sep-2020 11:01:41.410,-0.0593, 0.9982, 0.0464,-0.0372,-0.1826, 0.0375,-1.8665,-1.4394, 2.6133
09-Sep-2020 11:01:41.421,-0.0514, 0.9932, 0.0451,-0.0428,-0.1566, 0.0494,-1.8718,-1.4397, 2.6098
09-Sep-2020 11:01:41.430,-0.0451, 0.9836, 0.0447,-0.0446,-0.1157, 0.0489,-1.8775,-1.4402, 2.6057
09-Sep-2020 11:01:41.440,-0.0376, 0.9796, 0.0481,-0.0356,-0.0620, 0.0425,-1.8828,-1.4406, 2.6015
09-Sep-2020 11:01:41.450,-0.0361, 0.9936, 0.0449,-0.0171,-0.0145, 0.0311,-1.8869,-1.4410, 2.5981
09-Sep-2020 11:01:41.460,-0.0365, 1.0051, 0.0432,-0.0037, 0.0209, 0.0226,-1.8889,-1.4413, 2.5961
09-Sep-2020 11:01:41.470,-0.0422, 1.0061, 0.0439, 0.0002, 0.0429, 0.0229,-1.8896,-1.4416, 2.5953
09-Sep-2020 11:01:41.480,-0.0508, 0.9988, 0.0493,-0.0091, 0.0605, 0.0268,-1.8898,-1.4420, 2.5946
09-Sep-2020 11:01:41.490,-0.0636, 1.0002, 0.0544,-0.0135, 0.0733, 0.0236,-1.8904,-1.4424, 2.5934
09-Sep-2020 11:01:41.500,-0.0723, 0.9981, 0.0601,-0.0204, 0.0849, 0.0257,-1.8914,-1.4427, 2.5917
09-Sep-2020 11:01:41.510,-0.0793, 0.9925, 0.0645,-0.0271, 0.0895, 0.0294,-1.8929,-1.4431, 2.5894
09-Sep-2020 11:01:41.520,-0.0866, 0.9924, 0.0680,-0.0285, 0.0980, 0.0264,-1.8949,-1.4435, 2.5864
09-Sep-2020 11:01:41.530,-0.0920, 0.9926, 0.0708,-0.0295, 0.1012, 0.0224,-1.8970,-1.4438, 2.5833
09-Sep-2020 11:01:41.540,-0.1029, 0.9985, 0.0725,-0.0343, 0.0835, 0.0177,-1.8990,-1.4441, 2.5803
09-Sep-2020 11:01:41.550,-0.1106, 0.9979, 0.0747,-0.0469, 0.0450, 0.0128,-1.9014,-1.4444, 2.5771
09-Sep-2020 11:01:41.560,-0.1146, 0.9933, 0.0726,-0.0610,-0.0034,-0.0038,-1.9050,-1.4445, 2.5731
09-Sep-2020 11:01:41.570,-0.1155, 0.9900, 0.0639,-0.0650,-0.0427,-0.0111,-1.9097,-1.4445, 2.5684
09-Sep-2020 11:01:41.580,-0.1105, 0.9858, 0.0577,-0.0622,-0.0494,-0.0171,-1.9148,-1.4443, 2.5637
09-Sep-2020 11:01:41.590,-0.1035, 0.9855, 0.0571,-0.0555,-0.0140,-0.0214,-1.9195,-1.4440, 2.5594
09-Sep-2020 11:01:41.599,-0.0949, 0.9833, 0.0582,-0.0563, 0.0253,-0.0218,-1.9234,-1.4438, 2.5556
09-Sep-2020 11:01:41.609,-0.0880, 0.9861, 0.0553,-0.0525, 0.0658,-0.0220,-1.9269,-1.4435, 2.5519
09-Sep-2020 11:01:41.619,-0.0852, 0.9863, 0.0526,-0.0534, 0.0960,-0.0223,-1.9297,-1.4432, 2.5484
09-Sep-2020 11:01:41.630,-0.0849, 0.9852, 0.0522,-0.0526, 0.1108,-0.0137,-1.9324,-1.4429, 2.5447
09-Sep-2020 11:01:41.640,-0.0926, 0.9909, 0.0542,-0.0516, 0.1121,-0.0090,-1.9351,-1.4427, 2.5410
09-Sep-2020 11:01:41.649,-0.1058, 0.9936, 0.0574,-0.0477, 0.1058,-0.0090,-1.9376,-1.4425, 2.5373
09-Sep-2020 11:01:41.660,-0.1156, 0.9944, 0.0603,-0.0462, 0.0827,-0.0101,-1.9399,-1.4423, 2.5340
09-Sep-2020 11:01:41.669,-0.1189, 0.9886, 0.0592,-0.0376, 0.0602,-0.0086,-1.9421,-1.4422, 2.5310
09-Sep-2020 11:01:41.679,-0.1189, 0.9814, 0.0571,-0.0285, 0.0459,-0.0055,-1.9440,-1.4421, 2.5284
09-Sep-2020 11:01:41.689,-0.1179, 0.9788, 0.0580,-0.0238, 0.0462,-0.0039,-1.9456,-1.4420, 2.5264
09-Sep-2020 11:01:41.699,-0.1169, 0.9818, 0.0618,-0.0264, 0.0385,-0.0077,-1.9468,-1.4420, 2.5247
09-Sep-2020 11:01:41.709,-0.1146, 0.9885, 0.0658,-0.0334, 0.0344,-0.0085,-1.9483,-1.4420, 2.5229
09-Sep-2020 11:01:41.719,-0.1123, 0.9929, 0.0675,-0.0372, 0.0378,-0.0051,-1.9501,-1.4419, 2.5206
09-Sep-2020 11:01:41.729,-0.1112, 0.9907, 0.0671,-0.0366, 0.0337,-0.0088,-1.9523,-1.4418, 2.5181
09-Sep-2020 11:01:41.739,-0.1117, 0.9881, 0.0654,-0.0387, 0.0199,-0.0065,-1.9545,-1.4417, 2.5156
09-Sep-2020 11:01:41.749,-0.1118, 0.9844, 0.0641,-0.0435, 0.0083,-0.0096,-1.9569,-1.4416, 2.5129
09-Sep-2020 11:01:41.759,-0.1133, 0.9809, 0.0644,-0.0344, 0.0003,-0.0118,-1.9596,-1.4414, 2.5102
09-Sep-2020 11:01:41.769,-0.1160, 0.9812, 0.0612,-0.0302,-0.0089,-0.0175,-1.9617,-1.4412, 2.5080
09-Sep-2020 11:01:41.779,-0.1169, 0.9811, 0.0586,-0.0278,-0.0151,-0.0192,-1.9635,-1.4410, 2.5064
09-Sep-2020 11:01:41.789,-0.1178, 0.9846, 0.0566,-0.0336,-0.0290,-0.0253,-1.9652,-1.4408, 2.5048
09-Sep-2020 11:01:41.799,-0.1184, 0.9848, 0.0565,-0.0337,-0.0304,-0.0278,-1.9671,-1.4405, 2.5032
09-Sep-2020 11:01:41.809,-0.1170, 0.9824, 0.0556,-0.0325,-0.0349,-0.0361,-1.9691,-1.4402, 2.5015
09-Sep-2020 11:01:41.818,-0.1160, 0.9798, 0.0555,-0.0307,-0.0316,-0.0353,-1.9709,-1.4399, 2.5000
09-Sep-2020 11:01:41.829,-0.1146, 0.9799, 0.0571,-0.0203,-0.0240,-0.0373,-1.9724,-1.4395, 2.4989
09-Sep-2020 11:01:41.838,-0.1139, 0.9798, 0.0603,-0.0098,-0.0153,-0.0418,-1.9729,-1.4392, 2.4986
09-Sep-2020 11:01:41.849,-0.1104, 0.9836, 0.0632,-0.0056,-0.0109,-0.0427,-1.9727,-1.4388, 2.4990
09-Sep-2020 11:01:41.859,-0.1065, 0.9866, 0.0677,-0.0051, 0.0001,-0.0460,-1.9720,-1.4385, 2.4998
09-Sep-2020 11:01:41.869,-0.1027, 0.9877, 0.0711,-0.0112,-0.0058,-0.0429,-1.9711,-1.4381, 2.5007
09-Sep-2020 11:01:41.878,-0.0981, 0.9875, 0.0703,-0.0094,-0.0045,-0.0424,-1.9707,-1.4378, 2.5012
09-Sep-2020 11:01:41.888,-0.0978, 0.9893, 0.0665,-0.0094,-0.0045,-0.0424,-1.9703,-1.4374, 2.5016
09-Sep-2020 11:01:41.898,-0.0997, 0.9934, 0.0640,-0.0033, 0.0014,-0.0389,-1.9700,-1.4371, 2.5020
09-Sep-2020 11:01:41.908,-0.1032, 0.9965, 0.0643,-0.0008, 0.0089,-0.0375,-1.9692,-1.4368, 2.5029
09-Sep-2020 11:01:41.918,-0.1066, 0.9973, 0.0649, 0.0017, 0.0121,-0.0356,-1.9681,-1.4366, 2.5038
09-Sep-2020 11:01:41.928,-0.1067, 0.9936, 0.0675, 0.0042, 0.0119,-0.0310,-1.9670,-1.4363, 2.5049
09-Sep-2020 11:01:41.938,-0.1059, 0.9863, 0.0695, 0.0091, 0.0092,-0.0276,-1.9658,-1.4362, 2.5060
09-Sep-2020 11:01:41.948,-0.1062, 0.9823, 0.0703, 0.0101, 0.0125,-0.0235,-1.9645,-1.4360, 2.5072
09-Sep-2020 11:01:41.958,-0.1054, 0.9810, 0.0717, 0.0069, 0.0076,-0.0218,-1.9632,-1.4360, 2.5084
09-Sep-2020 11:01:41.968,-0.1057, 0.9832, 0.0745, 0.0060, 0.0021,-0.0257,-1.9621,-1.4359, 2.5095
09-Sep-2020 11:01:41.978,-0.1087, 0.9881, 0.0753, 0.0073,-0.0026,-0.0229,-1.9612,-1.4358, 2.5104
09-Sep-2020 11:01:41.988,-0.1113, 0.9904, 0.0767, 0.0082,-0.0119,-0.0164,-1.9603,-1.4357, 2.5113
09-Sep-2020 11:01:41.997,-0.1144, 0.9901, 0.0794, 0.0094,-0.0291,-0.0183,-1.9595,-1.4357, 2.5123
09-Sep-2020 11:01:42.007,-0.1155, 0.9908, 0.0796, 0.0017,-0.0416,-0.0190,-1.9588,-1.4356, 2.5133
09-Sep-2020 11:01:42.017,-0.1124, 0.9910, 0.0800,-0.0019,-0.0487,-0.0171,-1.9587,-1.4356, 2.5138
09-Sep-2020 11:01:42.027,-0.1079, 0.9896, 0.0810,-0.0080,-0.0404,-0.0185,-1.9590,-1.4355, 2.5140
09-Sep-2020 11:01:42.037,-0.1032, 0.9897, 0.0789,-0.0027,-0.0323,-0.0184,-1.9595,-1.4354, 2.5139
09-Sep-2020 11:01:42.047,-0.1008, 0.9911, 0.0760, 0.0025,-0.0263,-0.0209,-1.9597,-1.4353, 2.5140
09-Sep-2020 11:01:42.057,-0.0966, 0.9921, 0.0751, 0.0022,-0.0279,-0.0150,-1.9595,-1.4353, 2.5145
09-Sep-2020 11:01:42.067,-0.0948, 0.9911, 0.0772, 0.0007,-0.0160,-0.0172,-1.9594,-1.4352, 2.5149
09-Sep-2020 11:01:42.077,-0.0951, 0.9892, 0.0785, 0.0036,-0.0039,-0.0120,-1.9593,-1.4352, 2.5152
09-Sep-2020 11:01:42.087,-0.0962, 0.9865, 0.0775, 0.0117, 0.0040,-0.0110,-1.9590,-1.4351, 2.5156
09-Sep-2020 11:01:42.098,-0.0996, 0.9843, 0.0768, 0.0179, 0.0096,-0.0071,-1.9581,-1.4352, 2.5165
09-Sep-2020 11:01:42.107,-0.1019, 0.9844, 0.0776, 0.0167, 0.0199,-0.0081,-1.9568,-1.4353, 2.5177
09-Sep-2020 11:01:42.117,-0.1028, 0.9835, 0.0781, 0.0141, 0.0156,-0.0102,-1.9554,-1.4353, 2.5189
09-Sep-2020 11:01:42.127,-0.1066, 0.9837, 0.0753, 0.0131, 0.0166,-0.0106,-1.9543,-1.4354, 2.5199
09-Sep-2020 11:01:42.137,-0.1115, 0.9840, 0.0743, 0.0149, 0.0219,-0.0193,-1.9531,-1.4354, 2.5209
09-Sep-2020 11:01:42.147,-0.1139, 0.9838, 0.0734, 0.0146, 0.0255,-0.0249,-1.9517,-1.4354, 2.5221
09-Sep-2020 11:01:42.157,-0.1147, 0.9832, 0.0733, 0.0140, 0.0346,-0.0304,-1.9501,-1.4354, 2.5235
09-Sep-2020 11:01:42.167,-0.1143, 0.9835, 0.0733, 0.0163, 0.0503,-0.0317,-1.9482,-1.4352, 2.5251
09-Sep-2020 11:01:42.177,-0.1123, 0.9850, 0.0740, 0.0151, 0.0616,-0.0325,-1.9461,-1.4351, 2.5268
09-Sep-2020 11:01:42.187,-0.1121, 0.9876, 0.0739, 0.0098, 0.0721,-0.0302,-1.9439,-1.4350, 2.5284
09-Sep-2020 11:01:42.197,-0.1120, 0.9899, 0.0709, 0.0111, 0.0747,-0.0271,-1.9419,-1.4348, 2.5296
09-Sep-2020 11:01:42.207,-0.1125, 0.9902, 0.0657, 0.0111, 0.0699,-0.0239,-1.9400,-1.4347, 2.5308
09-Sep-2020 11:01:42.217,-0.1134, 0.9906, 0.0604, 0.0155, 0.0645,-0.0233,-1.9381,-1.4346, 2.5320
09-Sep-2020 11:01:42.226,-0.1176, 0.9898, 0.0594, 0.0134, 0.0571,-0.0245,-1.9361,-1.4345, 2.5335
09-Sep-2020 11:01:42.236,-0.1223, 0.9884, 0.0582, 0.0155, 0.0449,-0.0248,-1.9341,-1.4344, 2.5350
09-Sep-2020 11:01:42.246,-0.1255, 0.9909, 0.0549, 0.0209, 0.0297,-0.0224,-1.9321,-1.4343, 2.5365
09-Sep-2020 11:01:42.256,-0.1275, 0.9911, 0.0535, 0.0228, 0.0158,-0.0195,-1.9301,-1.4343, 2.5383
09-Sep-2020 11:01:42.266,-0.1291, 0.9904, 0.0545, 0.0229, 0.0102,-0.0201,-1.9281,-1.4343, 2.5401
09-Sep-2020 11:01:42.276,-0.1304, 0.9892, 0.0595, 0.0185, 0.0127,-0.0202,-1.9261,-1.4343, 2.5420
09-Sep-2020 11:01:42.286,-0.1296, 0.9881, 0.0626, 0.0201, 0.0235,-0.0234,-1.9243,-1.4342, 2.5437
09-Sep-2020 11:01:42.296,-0.1273, 0.9866, 0.0645, 0.0251, 0.0183,-0.0240,-1.9222,-1.4342, 2.5456
09-Sep-2020 11:01:42.307,-0.1239, 0.9846, 0.0649, 0.0251, 0.0183,-0.0240,-1.9198,-1.4341, 2.5479
09-Sep-2020 11:01:42.316,-0.1179, 0.9844, 0.0654, 0.0230,-0.0034,-0.0297,-1.9172,-1.4340, 2.5504
09-Sep-2020 11:01:42.326,-0.1106, 0.9832, 0.0686, 0.0226,-0.0023,-0.0290,-1.9149,-1.4339, 2.5528
09-Sep-2020 11:01:42.336,-0.1039, 0.9848, 0.0674, 0.0307, 0.0142,-0.0288,-1.9126,-1.4338, 2.5552
09-Sep-2020 11:01:42.346,-0.1009, 0.9880, 0.0683, 0.0294, 0.0362,-0.0244,-1.9097,-1.4337, 2.5579
09-Sep-2020 11:01:42.356,-0.0999, 0.9885, 0.0692, 0.0306, 0.0569,-0.0230,-1.9067,-1.4336, 2.5605
09-Sep-2020 11:01:42.366,-0.1020, 0.9871, 0.0690, 0.0278, 0.0640,-0.0259,-1.9036,-1.4336, 2.5631
09-Sep-2020 11:01:42.376,-0.1048, 0.9842, 0.0658, 0.0252, 0.0654,-0.0247,-1.9006,-1.4335, 2.5656
09-Sep-2020 11:01:42.386,-0.1082, 0.9819, 0.0654, 0.0266, 0.0749,-0.0265,-1.8976,-1.4334, 2.5679
09-Sep-2020 11:01:42.396,-0.1116, 0.9818, 0.0643, 0.0311, 0.0900,-0.0267,-1.8945,-1.4333, 2.5703
09-Sep-2020 11:01:42.405,-0.1121, 0.9827, 0.0646, 0.0339, 0.1085,-0.0269,-1.8910,-1.4333, 2.5729
09-Sep-2020 11:01:42.415,-0.1124, 0.9850, 0.0623, 0.0408, 0.1169,-0.0231,-1.8871,-1.4332, 2.5758
09-Sep-2020 11:01:42.426,-0.1135, 0.9894, 0.0627, 0.0422, 0.1298,-0.0244,-1.8828,-1.4332, 2.5789
09-Sep-2020 11:01:42.435,-0.1160, 0.9909, 0.0620, 0.0394, 0.1430,-0.0187,-1.8784,-1.4333, 2.5821
09-Sep-2020 11:01:42.446,-0.1188, 0.9924, 0.0587, 0.0455, 0.1416,-0.0180,-1.8739,-1.4333, 2.5852
09-Sep-2020 11:01:42.456,-0.1222, 0.9921, 0.0564, 0.0489, 0.1494,-0.0155,-1.8692,-1.4334, 2.5886
09-Sep-2020 11:01:42.465,-0.1256, 0.9910, 0.0570, 0.0441, 0.1482,-0.0151,-1.8642,-1.4335, 2.5921
09-Sep-2020 11:01:42.475,-0.1312, 0.9907, 0.0608, 0.0417, 0.1495,-0.0148,-1.8595,-1.4336, 2.5954
09-Sep-2020 11:01:42.485,-0.1327, 0.9890, 0.0640, 0.0350, 0.1491,-0.0111,-1.8549,-1.4336, 2.5985
09-Sep-2020 11:01:42.495,-0.1325, 0.9897, 0.0630, 0.0351, 0.1343,-0.0099,-1.8509,-1.4337, 2.6011
09-Sep-2020 11:01:42.505,-0.1319, 0.9906, 0.0609, 0.0283, 0.1218,-0.0056,-1.8472,-1.4338, 2.6034
09-Sep-2020 11:01:42.515,-0.1287, 0.9924, 0.0598, 0.0262, 0.1150, 0.0023,-1.8440,-1.4340, 2.6055
09-Sep-2020 11:01:42.525,-0.1261, 0.9935, 0.0585, 0.0307, 0.1097, 0.0080,-1.8411,-1.4341, 2.6073
09-Sep-2020 11:01:42.535,-0.1246, 0.9917, 0.0564, 0.0297, 0.1102, 0.0135,-1.8381,-1.4344, 2.6092
09-Sep-2020 11:01:42.545,-0.1246, 0.9913, 0.0540, 0.0288, 0.1097, 0.0183,-1.8352,-1.4347, 2.6110
09-Sep-2020 11:01:42.555,-0.1267, 0.9958, 0.0512, 0.0280, 0.1045, 0.0217,-1.8325,-1.4350, 2.6127
09-Sep-2020 11:01:42.565,-0.1282, 0.9966, 0.0503, 0.0219, 0.1001, 0.0253,-1.8300,-1.4353, 2.6142
09-Sep-2020 11:01:42.575,-0.1324, 0.9944, 0.0509, 0.0223, 0.0917, 0.0301,-1.8279,-1.4357, 2.6154
09-Sep-2020 11:01:42.585,-0.1381, 0.9911, 0.0506, 0.0163, 0.0772, 0.0290,-1.8261,-1.4361, 2.6163
09-Sep-2020 11:01:42.595,-0.1396, 0.9895, 0.0536, 0.0100, 0.0624, 0.0301,-1.8248,-1.4365, 2.6168
09-Sep-2020 11:01:42.605,-0.1392, 0.9893, 0.0538, 0.0018, 0.0506, 0.0269,-1.8241,-1.4369, 2.6169
09-Sep-2020 11:01:42.615,-0.1383, 0.9891, 0.0519, 0.0000, 0.0420, 0.0283,-1.8240,-1.4373, 2.6165
09-Sep-2020 11:01:42.625,-0.1349, 0.9905, 0.0481, 0.0007, 0.0366, 0.0253,-1.8242,-1.4376, 2.6159
09-Sep-2020 11:01:42.634,-0.1315, 0.9895, 0.0442, 0.0036, 0.0352, 0.0260,-1.8243,-1.4380, 2.6155
09-Sep-2020 11:01:42.644,-0.1289, 0.9884, 0.0427, 0.0049, 0.0328, 0.0259,-1.8242,-1.4383, 2.6152
09-Sep-2020 11:01:42.655,-0.1251, 0.9887, 0.0399, 0.0085, 0.0318, 0.0264,-1.8240,-1.4386, 2.6151
09-Sep-2020 11:01:42.664,-0.1196, 0.9869, 0.0376, 0.0142, 0.0363, 0.0255,-1.8236,-1.4390, 2.6152
09-Sep-2020 11:01:42.674,-0.1155, 0.9853, 0.0379, 0.0145, 0.0456, 0.0311,-1.8228,-1.4393, 2.6157
09-Sep-2020 11:01:42.687,-0.1121, 0.9871, 0.0401, 0.0160, 0.0575, 0.0349,-1.8218,-1.4397, 2.6162
09-Sep-2020 11:01:42.694,-0.1102, 0.9893, 0.0427, 0.0154, 0.0690, 0.0372,-1.8208,-1.4401, 2.6166
09-Sep-2020 11:01:42.704,-0.1084, 0.9890, 0.0440, 0.0112, 0.0744, 0.0405,-1.8198,-1.4406, 2.6170
09-Sep-2020 11:01:42.714,-0.1062, 0.9875, 0.0446, 0.0106, 0.0784, 0.0390,-1.8189,-1.4411, 2.6172
09-Sep-2020 11:01:42.724,-0.1031, 0.9881, 0.0447, 0.0120, 0.0881, 0.0393,-1.8180,-1.4415, 2.6173
09-Sep-2020 11:01:42.734,-0.1019, 0.9877, 0.0486, 0.0102, 0.1054, 0.0345,-1.8170,-1.4420, 2.6175
09-Sep-2020 11:01:42.744,-0.0989, 0.9873, 0.0518, 0.0146, 0.1237, 0.0256,-1.8156,-1.4425, 2.6178
09-Sep-2020 11:01:42.754,-0.0965, 0.9859, 0.0538, 0.0178, 0.1368, 0.0220,-1.8137,-1.4428, 2.6186
09-Sep-2020 11:01:42.764,-0.0938, 0.9862, 0.0589, 0.0240, 0.1492, 0.0162,-1.8113,-1.4432, 2.6196
09-Sep-2020 11:01:42.774,-0.0915, 0.9876, 0.0610, 0.0259, 0.1620, 0.0145,-1.8082,-1.4435, 2.6212
09-Sep-2020 11:01:42.784,-0.0886, 0.9894, 0.0624, 0.0251, 0.1707, 0.0144,-1.8049,-1.4438, 2.6230
09-Sep-2020 11:01:42.794,-0.0877, 0.9916, 0.0631, 0.0249, 0.1827, 0.0134,-1.8015,-1.4441, 2.6247
09-Sep-2020 11:01:42.804,-0.0878, 0.9960, 0.0633, 0.0242, 0.1999, 0.0122,-1.7980,-1.4444, 2.6264
09-Sep-2020 11:01:42.814,-0.0907, 1.0009, 0.0601, 0.0240, 0.2085, 0.0109,-1.7944,-1.4447, 2.6280
09-Sep-2020 11:01:42.824,-0.0903, 0.9986, 0.0571, 0.0190, 0.2135, 0.0134,-1.7908,-1.4449, 2.6295
09-Sep-2020 11:01:42.834,-0.0910, 0.9951, 0.0535, 0.0096, 0.2152, 0.0145,-1.7876,-1.4452, 2.6306
09-Sep-2020 11:01:42.844,-0.0910, 0.9918, 0.0508,-0.0013, 0.2220, 0.0132,-1.7852,-1.4455, 2.6309
09-Sep-2020 11:01:42.854,-0.0905, 0.9894, 0.0492,-0.0065, 0.2348, 0.0142,-1.7835,-1.4457, 2.6304
09-Sep-2020 11:01:42.863,-0.0878, 0.9901, 0.0451,-0.0045, 0.2564, 0.0098,-1.7820,-1.4460, 2.6295
09-Sep-2020 11:01:42.873,-0.0862, 0.9919, 0.0423,-0.0041, 0.2702, 0.0049,-1.7803,-1.4462, 2.6288
09-Sep-2020 11:01:42.883,-0.0859, 0.9927, 0.0396,-0.0042, 0.2777, 0.0020,-1.7782,-1.4463, 2.6281
09-Sep-2020 11:01:42.894,-0.0859, 0.9927, 0.0373,-0.0016, 0.2680,-0.0021,-1.7760,-1.4464, 2.6276
09-Sep-2020 11:01:42.903,-0.0883, 0.9906, 0.0341,-0.0163, 0.2589,-0.0010,-1.7738,-1.4465, 2.6272
09-Sep-2020 11:01:42.913,-0.0908, 0.9878, 0.0323,-0.0023, 0.2722, 0.0052,-1.7724,-1.4466, 2.6259
09-Sep-2020 11:01:42.923,-0.0956, 0.9940, 0.0280, 0.0211, 0.2802, 0.0115,-1.7700,-1.4468, 2.6257
09-Sep-2020 11:01:42.933,-0.1019, 0.9887, 0.0298, 0.0199, 0.2784, 0.0095,-1.7659,-1.4470, 2.6270
09-Sep-2020 11:01:42.943,-0.1074, 0.9871, 0.0322, 0.0184, 0.2795, 0.0144,-1.7618,-1.4473, 2.6283
09-Sep-2020 11:01:42.953,-0.1113, 0.9874, 0.0315, 0.0141, 0.2700, 0.0174,-1.7579,-1.4476, 2.6295
09-Sep-2020 11:01:42.963,-0.1175, 0.9863, 0.0306, 0.0125, 0.2497, 0.0158,-1.7543,-1.4479, 2.6304
09-Sep-2020 11:01:42.973,-0.1236, 0.9903, 0.0303, 0.0139, 0.2332, 0.0111,-1.7509,-1.4482, 2.6313
09-Sep-2020 11:01:42.983,-0.1277, 0.9933, 0.0311, 0.0049, 0.2060, 0.0128,-1.7476,-1.4484, 2.6323
09-Sep-2020 11:01:42.993,-0.1333, 0.9908, 0.0296,-0.0026, 0.1852, 0.0098,-1.7453,-1.4487, 2.6326
09-Sep-2020 11:01:43.003,-0.1393, 0.9882, 0.0263,-0.0085, 0.1570, 0.0115,-1.7436,-1.4489, 2.6324
09-Sep-2020 11:01:43.013,-0.1430, 0.9891, 0.0200,-0.0095, 0.1454, 0.0160,-1.7426,-1.4491, 2.6318
09-Sep-2020 11:01:43.023,-0.1479, 0.9927, 0.0159,-0.0031, 0.1390, 0.0202,-1.7420,-1.4494, 2.6310
09-Sep-2020 11:01:43.033,-0.1582, 0.9942, 0.0122, 0.0047, 0.1255, 0.0256,-1.7411,-1.4497, 2.6306
09-Sep-2020 11:01:43.043,-0.1700, 0.9919, 0.0100, 0.0082, 0.0959, 0.0247,-1.7398,-1.4500, 2.6307
09-Sep-2020 11:01:43.053,-0.1829, 0.9886, 0.0101, 0.0102, 0.0511, 0.0316,-1.7385,-1.4503, 2.6311
09-Sep-2020 11:01:43.063,-0.1919, 0.9840, 0.0118, 0.0128,-0.0043, 0.0386,-1.7374,-1.4507, 2.6316
09-Sep-2020 11:01:43.072,-0.1984, 0.9810, 0.0142, 0.0112,-0.0682, 0.0489,-1.7368,-1.4512, 2.6323
09-Sep-2020 11:01:43.082,-0.2030, 0.9790, 0.0218, 0.0043,-0.1217, 0.0575,-1.7370,-1.4517, 2.6328
09-Sep-2020 11:01:43.092,-0.2051, 0.9805, 0.0258, 0.0029,-0.1700, 0.0576,-1.7384,-1.4523, 2.6326
09-Sep-2020 11:01:43.102,-0.1984, 0.9835, 0.0247, 0.0106,-0.2150, 0.0446,-1.7402,-1.4529, 2.6325
09-Sep-2020 11:01:43.112,-0.1815, 0.9861, 0.0262, 0.0107,-0.2443, 0.0385,-1.7417,-1.4534, 2.6331
09-Sep-2020 11:01:43.122,-0.1617, 0.9878, 0.0311, 0.0016,-0.2649, 0.0365,-1.7435,-1.4539, 2.6338
09-Sep-2020 11:01:43.132,-0.1419, 0.9901, 0.0310,-0.0118,-0.2744, 0.0329,-1.7461,-1.4542, 2.6338
09-Sep-2020 11:01:43.142,-0.1273, 0.9945, 0.0280,-0.0240,-0.2794, 0.0296,-1.7498,-1.4545, 2.6328
09-Sep-2020 11:01:43.152,-0.1174, 1.0020, 0.0272,-0.0514,-0.2518, 0.0372,-1.7544,-1.4548, 2.6309
09-Sep-2020 11:01:43.162,-0.1158, 1.0038, 0.0418,-0.2250,-0.1848, 0.0947,-1.7617,-1.4550, 2.6262
09-Sep-2020 11:01:43.172,-0.1576, 0.8897, 0.0759,-0.2250,-0.1848, 0.0947,-1.7900,-1.4555, 2.5997
09-Sep-2020 11:01:43.182,-0.2815, 0.7310, 0.0267,-0.7868,-0.4062, 0.3862,-1.9017,-1.4573, 2.4923
09-Sep-2020 11:01:43.192,-0.2521, 1.1457, 0.0395, 0.0530,-0.3490, 0.0324,-1.9832,-1.4582, 2.4145
09-Sep-2020 11:01:43.202,-0.0727, 1.1424,-0.0873, 0.2329,-0.8654, 0.0392,-1.9917,-1.4589, 2.4100
09-Sep-2020 11:01:43.212,-0.0638, 1.0508,-0.0443, 0.5344,-0.8284,-0.0963,-1.9818,-1.4602, 2.4284
09-Sep-2020 11:01:43.222, 0.0396, 1.0350, 0.0628, 0.7999,-0.4205,-0.0649,-1.9411,-1.4616, 2.4773
09-Sep-2020 11:01:43.232, 0.0772, 0.9944, 0.1269, 0.6842,-0.1009, 0.0414,-1.8765,-1.4637, 2.5465
09-Sep-2020 11:01:43.242, 0.0542, 0.9643, 0.1596, 0.2000,-0.0885, 0.0951,-1.8192,-1.4659, 2.6054
09-Sep-2020 11:01:43.252,-0.0069, 0.9953, 0.1584,-0.2050,-0.1945, 0.0338,-1.8025,-1.4673, 2.6231
09-Sep-2020 11:01:43.262,-0.0625, 1.0296, 0.0882,-0.3051,-0.3095, 0.0163,-1.8224,-1.4673, 2.6051
09-Sep-2020 11:01:43.271,-0.0879, 1.0103, 0.0207,-0.1515,-0.3248, 0.0371,-1.8524,-1.4668, 2.5780
09-Sep-2020 11:01:43.281,-0.0947, 0.9842, 0.0024, 0.0456,-0.2886, 0.0452,-1.8701,-1.4668, 2.5634
09-Sep-2020 11:01:43.291,-0.0932, 0.9740, 0.0101, 0.1366,-0.2313, 0.0346,-1.8706,-1.4674, 2.5658
09-Sep-2020 11:01:43.301,-0.0952, 0.9839, 0.0300, 0.1185,-0.1954, 0.0335,-1.8617,-1.4682, 2.5770
09-Sep-2020 11:01:43.311,-0.0939, 0.9836, 0.0448, 0.0512,-0.1713, 0.0500,-1.8537,-1.4690, 2.5870
09-Sep-2020 11:01:43.322,-0.0928, 0.9935, 0.0543, 0.0512,-0.1713, 0.0500,-1.8519,-1.4697, 2.5905
09-Sep-2020 11:01:43.331,-0.0880, 0.9949, 0.0628,-0.0293,-0.1730, 0.0424,-1.8566,-1.4702, 2.5876
09-Sep-2020 11:01:43.341,-0.0737, 0.9978, 0.0689, 0.0463,-0.1525, 0.0437,-1.8616,-1.4706, 2.5842
09-Sep-2020 11:01:43.351,-0.0576, 0.9960, 0.0760, 0.1153,-0.1371, 0.0672,-1.8600,-1.4713, 2.5874
09-Sep-2020 11:01:43.361,-0.0451, 0.9847, 0.0878, 0.1463,-0.1284, 0.0833,-1.8522,-1.4723, 2.5966
09-Sep-2020 11:01:43.371,-0.0493, 0.9902, 0.0909, 0.1366,-0.1290, 0.0972,-1.8417,-1.4736, 2.6085
09-Sep-2020 11:01:43.381,-0.0663, 0.9997, 0.0864, 0.1151,-0.1481, 0.1137,-1.8320,-1.4749, 2.6196
09-Sep-2020 11:01:43.391,-0.0813, 1.0098, 0.0730, 0.0716,-0.2107, 0.1219,-1.8249,-1.4764, 2.6282
09-Sep-2020 11:01:43.401,-0.0920, 1.0198, 0.0509, 0.0012,-0.3143, 0.1104,-1.8230,-1.4778, 2.6323
09-Sep-2020 11:01:43.411,-0.0859, 1.0163, 0.0310,-0.0527,-0.4051, 0.1046,-1.8292,-1.4790, 2.6293
09-Sep-2020 11:01:43.421,-0.0688, 1.0076, 0.0149,-0.0405,-0.4199, 0.1028,-1.8414,-1.4799, 2.6210
09-Sep-2020 11:01:43.431,-0.0533, 1.0043, 0.0069, 0.0213,-0.3365, 0.0984,-1.8524,-1.4809, 2.6140
09-Sep-2020 11:01:43.441,-0.0388, 0.9983, 0.0093, 0.0842,-0.2151, 0.1073,-1.8566,-1.4820, 2.6132
09-Sep-2020 11:01:43.451,-0.0262, 0.9867, 0.0078, 0.1116,-0.0875, 0.1172,-1.8532,-1.4833, 2.6188
09-Sep-2020 11:01:43.461,-0.0177, 0.9756, 0.0157, 0.1201, 0.0528, 0.1196,-1.8462,-1.4848, 2.6266
09-Sep-2020 11:01:43.471,-0.0091, 0.9704, 0.0244, 0.1106, 0.1680, 0.1245,-1.8367,-1.4863, 2.6357
09-Sep-2020 11:01:43.481,-0.0026, 0.9726, 0.0267, 0.1012, 0.2582, 0.1201,-1.8263,-1.4879, 2.6445
09-Sep-2020 11:01:43.490,-0.0018, 0.9819, 0.0303, 0.1002, 0.3219, 0.1090,-1.8153,-1.4893, 2.6530
09-Sep-2020 11:01:43.500,-0.0090, 0.9865, 0.0333, 0.1173, 0.3611, 0.1110,-1.8029,-1.4907, 2.6623
09-Sep-2020 11:01:43.511,-0.0215, 0.9613, 0.0361, 0.0963, 0.3493, 0.0859,-1.7883,-1.4921, 2.6733
09-Sep-2020 11:01:43.520,-0.0454, 0.9769, 0.0363, 0.0617, 0.2901, 0.0573,-1.7751,-1.4932, 2.6831
09-Sep-2020 11:01:43.530,-0.0707, 1.0076, 0.0304, 0.0334, 0.2146, 0.0511,-1.7658,-1.4940, 2.6896
09-Sep-2020 11:01:43.540,-0.0850, 1.0140, 0.0239, 0.0244, 0.1663, 0.0532,-1.7602,-1.4947, 2.6930
09-Sep-2020 11:01:43.550,-0.0922, 1.0059, 0.0160, 0.0235, 0.1318, 0.0417,-1.7564,-1.4953, 2.6952
09-Sep-2020 11:01:43.560,-0.1003, 1.0047, 0.0045, 0.0318, 0.1197, 0.0207,-1.7526,-1.4958, 2.6977
09-Sep-2020 11:01:43.570,-0.0990, 1.0120,-0.0082, 0.0470, 0.1099,-0.0177,-1.7473,-1.4961, 2.7018
09-Sep-2020 11:01:43.580,-0.0972, 1.0365,-0.0156, 0.0310, 0.1141,-0.0185,-1.7398,-1.4961, 2.7082
09-Sep-2020 11:01:43.590,-0.0707, 0.9774, 0.0095, 0.0424, 0.2005,-0.0062,-1.7340,-1.4962, 2.7128
09-Sep-2020 11:01:43.600,-0.0667, 0.9651, 0.0321, 0.0544, 0.2357,-0.0104,-1.7265,-1.4963, 2.7184
09-Sep-2020 11:01:43.610,-0.0526, 0.9794, 0.0352, 0.0259, 0.1802,-0.0118,-1.7172,-1.4964, 2.7255
09-Sep-2020 11:01:43.620,-0.0344, 0.9907, 0.0297,-0.0203, 0.0797,-0.0070,-1.7118,-1.4964, 2.7291
09-Sep-2020 11:01:43.630,-0.0222, 0.9972, 0.0233,-0.0486, 0.0319, 0.0073,-1.7131,-1.4964, 2.7269
09-Sep-2020 11:01:43.640,-0.0198, 1.0036, 0.0174,-0.0466, 0.0423, 0.0151,-1.7186,-1.4964, 2.7212
09-Sep-2020 11:01:43.650,-0.0238, 1.0105, 0.0146,-0.0328, 0.0759, 0.0114,-1.7237,-1.4965, 2.7156
09-Sep-2020 11:01:43.660,-0.0298, 1.0119, 0.0197,-0.0242, 0.1324, 0.0093,-1.7268,-1.4967, 2.7117
09-Sep-2020 11:01:43.670,-0.0334, 1.0076, 0.0273,-0.0163, 0.1745, 0.0126,-1.7281,-1.4968, 2.7091
09-Sep-2020 11:01:43.680,-0.0397, 1.0045, 0.0294,-0.0157, 0.1720, 0.0139,-1.7286,-1.4970, 2.7068
09-Sep-2020 11:01:43.689,-0.0435, 1.0029, 0.0325,-0.0120, 0.1593, 0.0049,-1.7292,-1.4972, 2.7046
09-Sep-2020 11:01:43.700,-0.0432, 0.9985, 0.0397,-0.0480, 0.1272,-0.0041,-1.7297,-1.4973, 2.7025
09-Sep-2020 11:01:43.709,-0.0435, 0.9945, 0.0461,-0.0864, 0.0920,-0.0122,-1.7347,-1.4973, 2.6962
09-Sep-2020 11:01:43.719,-0.0445, 0.9882, 0.0460,-0.0992, 0.0635,-0.0114,-1.7448,-1.4972, 2.6852
09-Sep-2020 11:01:43.729,-0.0417, 0.9835, 0.0409,-0.0740, 0.0591,-0.0093,-1.7564,-1.4971, 2.6728
09-Sep-2020 11:01:43.739,-0.0411, 0.9821, 0.0332,-0.0439, 0.0661,-0.0129,-1.7651,-1.4970, 2.6636
09-Sep-2020 11:01:43.749,-0.0378, 0.9842, 0.0253,-0.0364, 0.0715,-0.0102,-1.7702,-1.4969, 2.6578
09-Sep-2020 11:01:43.760,-0.0269, 0.9855, 0.0179,-0.0486, 0.0667, 0.0030,-1.7743,-1.4969, 2.6530
09-Sep-2020 11:01:43.769,-0.0421, 1.0016, 0.0071,-0.0486, 0.0667, 0.0030,-1.7803,-1.4969, 2.6463
09-Sep-2020 11:01:43.779,-0.0540, 1.0088,-0.0096,-0.0489,-0.0223,-0.0211,-1.7877,-1.4967, 2.6386
09-Sep-2020 11:01:43.789,-0.0249, 0.9810, 0.0164,-0.0277, 0.1320,-0.0108,-1.7938,-1.4965, 2.6325
09-Sep-2020 11:01:43.799, 0.0384, 0.9486, 0.0656, 0.0079, 0.3016, 0.0087,-1.7958,-1.4965, 2.6292
09-Sep-2020 11:01:43.809, 0.0105, 0.9854, 0.0473,-0.0059, 0.3707,-0.0204,-1.7927,-1.4966, 2.6294
09-Sep-2020 11:01:43.819,-0.0277, 1.0152, 0.0370,-0.0142, 0.2331,-0.0365,-1.7894,-1.4966, 2.6292
09-Sep-2020 11:01:43.829,-0.0236, 1.0062, 0.0195,-0.0079, 0.1511,-0.0310,-1.7877,-1.4963, 2.6286
09-Sep-2020 11:01:43.839,-0.0269, 0.9902, 0.0425,-0.0229, 0.0689,-0.0433,-1.7865,-1.4961, 2.6284
09-Sep-2020 11:01:43.849,-0.0367, 0.9979, 0.0349,-0.0287, 0.0504,-0.0397,-1.7871,-1.4958, 2.6270
09-Sep-2020 11:01:43.859,-0.0391, 0.9965, 0.0272,-0.0182, 0.0621,-0.0401,-1.7885,-1.4954, 2.6251
09-Sep-2020 11:01:43.869,-0.0448, 0.9989, 0.0169,-0.0090, 0.0875,-0.0412,-1.7885,-1.4951, 2.6245
09-Sep-2020 11:01:43.879,-0.0508, 0.9978, 0.0155,-0.0038, 0.1108,-0.0383,-1.7881,-1.4949, 2.6240
09-Sep-2020 11:01:43.889,-0.0553, 0.9922, 0.0164, 0.0011, 0.1127,-0.0309,-1.7899,-1.4950, 2.6211
09-Sep-2020 11:01:43.899,-0.0642, 0.9962, 0.0296,-0.0122, 0.1031,-0.0336,-1.7882,-1.4949, 2.6217
09-Sep-2020 11:01:43.909,-0.0726, 1.0008, 0.0418,-0.0367, 0.0663,-0.0393,-1.7878,-1.4946, 2.6212
09-Sep-2020 11:01:43.919,-0.0796, 1.0050, 0.0426,-0.0473, 0.0227,-0.0402,-1.7906,-1.4943, 2.6176
09-Sep-2020 11:01:43.929,-0.0795, 1.0053, 0.0328,-0.0497,-0.0031,-0.0371,-1.7954,-1.4940, 2.6126
09-Sep-2020 11:01:43.938,-0.0834, 1.0009, 0.0188,-0.0699,-0.0435,-0.0343,-1.8009,-1.4936, 2.6072
09-Sep-2020 11:01:43.949,-0.0908, 0.9951, 0.0089,-0.0830,-0.0780,-0.0319,-1.8088,-1.4932, 2.5996
09-Sep-2020 11:01:43.958,-0.0835, 0.9825, 0.0065,-0.0656,-0.0357,-0.0323,-1.8183,-1.4928, 2.5909
09-Sep-2020 11:01:43.968,-0.0723, 0.9779, 0.0106,-0.0483, 0.0255,-0.0350,-1.8254,-1.4925, 2.5841
09-Sep-2020 11:01:43.978,-0.0675, 0.9844, 0.0080,-0.0513, 0.0555,-0.0270,-1.8300,-1.4921, 2.5793
09-Sep-2020 11:01:43.988,-0.0599, 0.9869, 0.0081,-0.0496, 0.1066,-0.0181,-1.8348,-1.4918, 2.5739
09-Sep-2020 11:01:43.998,-0.0465, 0.9893, 0.0153,-0.0372, 0.2028,-0.0346,-1.8390,-1.4916, 2.5687
09-Sep-2020 11:01:44.008,-0.0307, 0.9957, 0.0192,-0.0395, 0.3234,-0.0433,-1.8404,-1.4912, 2.5652
09-Sep-2020 11:01:44.018,-0.0188, 0.9913, 0.0133,-0.0388, 0.4356,-0.0358,-1.8402,-1.4908, 2.5622
09-Sep-2020 11:01:44.028,-0.0213, 0.9877, 0.0015,-0.0288, 0.4947,-0.0153,-1.8389,-1.4904, 2.5592
09-Sep-2020 11:01:44.038,-0.0363, 0.9869,-0.0057,-0.0240, 0.5128, 0.0024,-1.8365,-1.4903, 2.5567
09-Sep-2020 11:01:44.048,-0.0531, 0.9921,-0.0042,-0.0311, 0.5089, 0.0049,-1.8339,-1.4903, 2.5541
09-Sep-2020 11:01:44.057,-0.0706, 1.0059,-0.0072,-0.0233, 0.4854, 0.0088,-1.8322,-1.4904, 2.5508
09-Sep-2020 11:01:44.067,-0.0878, 1.0059,-0.0069,-0.0106, 0.4439,-0.0030,-1.8300,-1.4905, 2.5482
09-Sep-2020 11:01:44.077,-0.1122, 1.0082,-0.0042,-0.0234, 0.3541,-0.0318,-1.8268,-1.4905, 2.5470
09-Sep-2020 11:01:44.088,-0.1364, 1.0174,-0.0003,-0.0423, 0.2531,-0.0598,-1.8251,-1.4903, 2.5452
09-Sep-2020 11:01:44.098,-0.1467, 1.0173, 0.0111,-0.0510, 0.1724,-0.0813,-1.8255,-1.4897, 2.5423
09-Sep-2020 11:01:44.108,-0.1591, 1.0065, 0.0213,-0.0656, 0.1174,-0.0903,-1.8272,-1.4889, 2.5389
09-Sep-2020 11:01:44.118,-0.1622, 0.9892, 0.0325,-0.0718, 0.0902,-0.0860,-1.8305,-1.4880, 2.5343
09-Sep-2020 11:01:44.128,-0.1505, 0.9754, 0.0230,-0.0786, 0.0617,-0.0916,-1.8350,-1.4870, 2.5290
09-Sep-2020 11:01:44.138,-0.1376, 0.9711, 0.0037,-0.0731, 0.0433,-0.0954,-1.8401,-1.4860, 2.5232
09-Sep-2020 11:01:44.148,-0.1170, 0.9773,-0.0043,-0.0696, 0.0542,-0.1089,-1.8447,-1.4850, 2.5181
09-Sep-2020 11:01:44.157,-0.1023, 0.9943,-0.0001,-0.0684, 0.1125,-0.1140,-1.8485,-1.4838, 2.5137
09-Sep-2020 11:01:44.167,-0.0823, 0.9818, 0.0147,-0.0495, 0.1866,-0.0997,-1.8511,-1.4827, 2.5101
09-Sep-2020 11:01:44.177,-0.0918, 0.9880, 0.0335,-0.0748, 0.1477,-0.1189,-1.8517,-1.4816, 2.5076
09-Sep-2020 11:01:44.187,-0.0917, 1.0016,-0.0060,-0.0639, 0.0370,-0.1055,-1.8541,-1.4804, 2.5038
09-Sep-2020 11:01:44.197,-0.1260, 0.9953, 0.0479,-0.1608, 0.0133,-0.1511,-1.8577,-1.4792, 2.4998
09-Sep-2020 11:01:44.207,-0.1011, 0.9990, 0.0474,-0.3166,-0.4715,-0.2601,-1.8708,-1.4771, 2.4869
09-Sep-2020 11:01:44.217, 0.0202, 0.9702,-0.0371, 0.1428, 0.0485,-0.0540,-1.8919,-1.4742, 2.4692
09-Sep-2020 11:01:44.227,-0.1189, 0.9827, 0.1741, 0.2536, 0.3999,-0.0626,-1.8779,-1.4739, 2.4827
09-Sep-2020 11:01:44.237,-0.2103, 1.0148, 0.1367, 0.0747, 0.2171,-0.1744,-1.8487,-1.4739, 2.5084
09-Sep-2020 11:01:44.247,-0.1593, 1.0270, 0.0573,-0.1524,-0.1165,-0.2191,-1.8346,-1.4726, 2.5204
09-Sep-2020 11:01:44.257,-0.1119, 1.0202, 0.0257,-0.2021,-0.3384,-0.2206,-1.8431,-1.4702, 2.5130
09-Sep-2020 11:01:44.267,-0.1057, 1.0082,-0.0025,-0.1046,-0.3069,-0.2332,-1.8581,-1.4677, 2.5011
09-Sep-2020 11:01:44.277,-0.0923, 1.0050, 0.0000,-0.0020,-0.1360,-0.2447,-1.8637,-1.4653, 2.4985
09-Sep-2020 11:01:44.287,-0.0827, 1.0007, 0.0125, 0.0328, 0.0244,-0.2564,-1.8594,-1.4629, 2.5043
09-Sep-2020 11:01:44.296,-0.0760, 0.9903, 0.0201, 0.0277, 0.1335,-0.2629,-1.8498,-1.4606, 2.5137
09-Sep-2020 11:01:44.306,-0.0648, 0.9797, 0.0306, 0.0237, 0.1925,-0.2485,-1.8397,-1.4583, 2.5225
09-Sep-2020 11:01:44.317,-0.0573, 0.9710, 0.0375, 0.0425, 0.2081,-0.2298,-1.8299,-1.4560, 2.5305
09-Sep-2020 11:01:44.326,-0.0653, 0.9693, 0.0461, 0.0556, 0.2066,-0.2091,-1.8192,-1.4540, 2.5392
09-Sep-2020 11:01:44.337,-0.0793, 0.9731, 0.0558, 0.0497, 0.2167,-0.1887,-1.8084,-1.4522, 2.5480
09-Sep-2020 11:01:44.347,-0.0917, 0.9789, 0.0620, 0.0361, 0.2297,-0.1653,-1.7986,-1.4506, 2.5557
09-Sep-2020 11:01:44.356,-0.1007, 0.9907, 0.0637, 0.0232, 0.2225,-0.1362,-1.7903,-1.4491, 2.5618
09-Sep-2020 11:01:44.366,-0.1047, 1.0043, 0.0700, 0.0074, 0.1719,-0.1053,-1.7837,-1.4479, 2.5662
09-Sep-2020 11:01:44.376,-0.1068, 1.0135, 0.0759,-0.0079, 0.0850,-0.0733,-1.7796,-1.4470, 2.5687
09-Sep-2020 11:01:44.386,-0.1093, 1.0196, 0.0861,-0.0213,-0.0119,-0.0434,-1.7780,-1.4464, 2.5695
09-Sep-2020 11:01:44.396,-0.1122, 1.0219, 0.0922,-0.0364,-0.1160,-0.0155,-1.7789,-1.4460, 2.5687
09-Sep-2020 11:01:44.406,-0.1132, 1.0140, 0.0878,-0.0600,-0.1952, 0.0126,-1.7826,-1.4458, 2.5662
09-Sep-2020 11:01:44.416,-0.1170, 1.0008, 0.0897,-0.0985,-0.2398, 0.0265,-1.7896,-1.4460, 2.5610
09-Sep-2020 11:01:44.426,-0.1227, 0.9902, 0.0916,-0.1147,-0.2613, 0.0228,-1.8000,-1.4461, 2.5529
09-Sep-2020 11:01:44.436,-0.1228, 0.9827, 0.0895,-0.1195,-0.2778, 0.0168,-1.8120,-1.4462, 2.5434
09-Sep-2020 11:01:44.446,-0.1128, 0.9799, 0.0924,-0.1232,-0.2896, 0.0067,-1.8246,-1.4461, 2.5336
09-Sep-2020 11:01:44.456,-0.1009, 0.9814, 0.0994,-0.1255,-0.3011,-0.0077,-1.8373,-1.4460, 2.5237
09-Sep-2020 11:01:44.466,-0.0887, 0.9846, 0.0977,-0.1252,-0.3034,-0.0267,-1.8499,-1.4456, 2.5140
09-Sep-2020 11:01:44.476,-0.0761, 0.9823, 0.0839,-0.1097,-0.2872,-0.0415,-1.8621,-1.4451, 2.5048
09-Sep-2020 11:01:44.486,-0.0659, 0.9767, 0.0587,-0.0911,-0.2439,-0.0541,-1.8725,-1.4445, 2.4972
09-Sep-2020 11:01:44.496,-0.0604, 0.9698, 0.0401,-0.0813,-0.1741,-0.0686,-1.8808,-1.4438, 2.4912
09-Sep-2020 11:01:44.505,-0.0571, 0.9636, 0.0283,-0.0614,-0.0718,-0.0855,-1.8872,-1.4429, 2.4865
09-Sep-2020 11:01:44.516,-0.0542, 0.9572, 0.0221,-0.0253, 0.0289,-0.0966,-1.8906,-1.4420, 2.4839
09-Sep-2020 11:01:44.525,-0.0527, 0.9563, 0.0228, 0.0199, 0.1161,-0.1004,-1.8901,-1.4411, 2.4841
09-Sep-2020 11:01:44.535,-0.0567, 0.9579, 0.0357, 0.0526, 0.1816,-0.1002,-1.8856,-1.4403, 2.4875
09-Sep-2020 11:01:44.546,-0.0681, 0.9626, 0.0593, 0.0735, 0.2478,-0.0989,-1.8782,-1.4396, 2.4932
09-Sep-2020 11:01:44.556,-0.0791, 0.9724, 0.0873, 0.0723, 0.2929,-0.0959,-1.8687,-1.4390, 2.5003
09-Sep-2020 11:01:44.565,-0.0910, 0.9815, 0.1037, 0.0471, 0.3071,-0.0945,-1.8589,-1.4384, 2.5072
09-Sep-2020 11:01:44.575,-0.1042, 0.9883, 0.0969, 0.0385, 0.2998,-0.0929,-1.8505,-1.4377, 2.5127
09-Sep-2020 11:01:44.585,-0.1176, 0.9914, 0.0800, 0.0342, 0.2868,-0.0891,-1.8429,-1.4371, 2.5174
09-Sep-2020 11:01:44.595,-0.1323, 0.9910, 0.0695, 0.0343, 0.2584,-0.0902,-1.8358,-1.4364, 2.5217
09-Sep-2020 11:01:44.605,-0.1467, 0.9936, 0.0698, 0.0343, 0.2584,-0.0902,-1.8290,-1.4358, 2.5260
09-Sep-2020 11:01:44.615,-0.1613, 0.9943, 0.0765, 0.0373, 0.2076,-0.0825,-1.8226,-1.4352, 2.5301
09-Sep-2020 11:01:44.625,-0.1719, 0.9939, 0.0803, 0.0381, 0.1579,-0.0798,-1.8164,-1.4347, 2.5342
09-Sep-2020 11:01:44.635,-0.1780, 0.9904, 0.0784, 0.0279, 0.0898,-0.0807,-1.8110,-1.4341, 2.5382
09-Sep-2020 11:01:44.645,-0.1775, 0.9845, 0.0747, 0.0095, 0.0248,-0.0702,-1.8073,-1.4335, 2.5411
09-Sep-2020 11:01:44.655,-0.1714, 0.9829, 0.0668,-0.0007,-0.0261,-0.0682,-1.8055,-1.4329, 2.5426
09-Sep-2020 11:01:44.665,-0.1600, 0.9854, 0.0609,-0.0114,-0.0666,-0.0639,-1.8050,-1.4324, 2.5434
09-Sep-2020 11:01:44.675,-0.1443, 0.9864, 0.0551,-0.0127,-0.0905,-0.0640,-1.8055,-1.4318, 2.5436
09-Sep-2020 11:01:44.688,-0.1307, 0.9842, 0.0485,-0.0037,-0.0985,-0.0629,-1.8064,-1.4312, 2.5436
09-Sep-2020 11:01:44.695,-0.1228, 0.9820, 0.0419, 0.0198,-0.0730,-0.0608,-1.8066,-1.4306, 2.5444
09-Sep-2020 11:01:44.705,-0.1218, 0.9830, 0.0454, 0.0351,-0.0463,-0.0643,-1.8052,-1.4301, 2.5465
09-Sep-2020 11:01:44.715,-0.1207, 0.9833, 0.0524, 0.0426,-0.0267,-0.0601,-1.8024,-1.4296, 2.5499
09-Sep-2020 11:01:44.724,-0.1202, 0.9837, 0.0535, 0.0445,-0.0185,-0.0625,-1.7989,-1.4291, 2.5537
09-Sep-2020 11:01:44.734,-0.1187, 0.9811, 0.0525, 0.0353, 0.0006,-0.0616,-1.7952,-1.4287, 2.5576
09-Sep-2020 11:01:44.744,-0.1141, 0.9762, 0.0506, 0.0328, 0.0236,-0.0639,-1.7919,-1.4282, 2.5609
09-Sep-2020 11:01:44.754,-0.1081, 0.9778, 0.0419, 0.0449, 0.0649,-0.0689,-1.7885,-1.4277, 2.5642
09-Sep-2020 11:01:44.764,-0.1018, 0.9782, 0.0341, 0.0536, 0.1163,-0.0725,-1.7838,-1.4272, 2.5682
09-Sep-2020 11:01:44.774,-0.0999, 0.9798, 0.0337, 0.0709, 0.1704,-0.0768,-1.7779,-1.4267, 2.5730
09-Sep-2020 11:01:44.784,-0.1041, 0.9851, 0.0376, 0.0819, 0.2108,-0.0819,-1.7704,-1.4261, 2.5789
09-Sep-2020 11:01:44.794,-0.1102, 0.9846, 0.0385, 0.0822, 0.2298,-0.0844,-1.7618,-1.4256, 2.5856
09-Sep-2020 11:01:44.804,-0.1219, 0.9776, 0.0396, 0.0725, 0.2243,-0.0902,-1.7530,-1.4250, 2.5921
09-Sep-2020 11:01:44.814,-0.1326, 0.9713, 0.0366, 0.0639, 0.2136,-0.0964,-1.7449,-1.4244, 2.5981
09-Sep-2020 11:01:44.824,-0.1390, 0.9719, 0.0342, 0.0561, 0.2249,-0.0993,-1.7374,-1.4236, 2.6035
09-Sep-2020 11:01:44.834,-0.1467, 0.9826, 0.0313, 0.0638, 0.2475,-0.1043,-1.7303,-1.4229, 2.6084
09-Sep-2020 11:01:44.844,-0.1520, 0.9915, 0.0309, 0.0729, 0.2611,-0.1107,-1.7225,-1.4221, 2.6138
09-Sep-2020 11:01:44.854,-0.1569, 0.9961, 0.0346, 0.0681, 0.2667,-0.1203,-1.7141,-1.4212, 2.6197
09-Sep-2020 11:01:44.864,-0.1593, 1.0063, 0.0379, 0.0566, 0.2621,-0.1164,-1.7059,-1.4203, 2.6253
09-Sep-2020 11:01:44.874,-0.1561, 1.0143, 0.0402, 0.0499, 0.2407,-0.1109,-1.6986,-1.4193, 2.6301
09-Sep-2020 11:01:44.884,-0.1563, 1.0190, 0.0383, 0.0516, 0.2004,-0.0940,-1.6920,-1.4184, 2.6344
09-Sep-2020 11:01:44.894,-0.1712, 1.0139, 0.0350, 0.0045, 0.2086,-0.0741,-1.6861,-1.4177, 2.6383
09-Sep-2020 11:01:44.904,-0.2027, 1.0048, 0.0397,-0.3252, 0.8185, 0.2008,-1.6832,-1.4170, 2.6391
09-Sep-2020 11:01:44.914,-0.3036, 0.9494, 0.0119,-0.0524, 0.4071,-0.1020,-1.6924,-1.4178, 2.6236
09-Sep-2020 11:01:44.924,-0.1735, 1.0656,-0.1398, 0.2341,-0.1950,-0.2544,-1.6911,-1.4170, 2.6214
09-Sep-2020 11:01:44.934,-0.0939, 0.9556,-0.0884, 0.3134,-0.3201,-0.1695,-1.6766,-1.4150, 2.6378
09-Sep-2020 11:01:44.944,-0.1083, 0.9641, 0.0414, 0.2316,-0.1065,-0.1142,-1.6593,-1.4136, 2.6583
09-Sep-2020 11:01:44.954,-0.1497, 0.9867, 0.1119, 0.0558, 0.1142,-0.1075,-1.6454,-1.4127, 2.6734
09-Sep-2020 11:01:44.964,-0.1834, 0.9858, 0.0778,-0.0508, 0.1545,-0.1046,-1.6399,-1.4118, 2.6780
09-Sep-2020 11:01:44.973,-0.1996, 0.9764, 0.0064,-0.0270, 0.1048,-0.0972,-1.6403,-1.4108, 2.6760
09-Sep-2020 11:01:44.983,-0.2050, 0.9670,-0.0119, 0.0366, 0.0631,-0.0809,-1.6402,-1.4099, 2.6751
09-Sep-2020 11:01:44.993,-0.2099, 0.9683, 0.0082, 0.0433, 0.0497,-0.0729,-1.6371,-1.4092, 2.6776
09-Sep-2020 11:01:45.003,-0.2110, 0.9798, 0.0328,-0.0052, 0.0459,-0.0719,-1.6337,-1.4086, 2.6805
09-Sep-2020 11:01:45.013,-0.2016, 0.9897, 0.0316,-0.0417,-0.0066,-0.0649,-1.6332,-1.4079, 2.6806
09-Sep-2020 11:01:45.023,-0.1835, 0.9996, 0.0046,-0.0352,-0.0743,-0.0603,-1.6352,-1.4073, 2.6786
09-Sep-2020 11:01:45.033,-0.1774, 1.0078,-0.0106,-0.0172,-0.0980,-0.0606,-1.6381,-1.4068, 2.6765
09-Sep-2020 11:01:45.043,-0.1855, 1.0085,-0.0113, 0.0075,-0.0737,-0.0734,-1.6402,-1.4063, 2.6753
09-Sep-2020 11:01:45.053,-0.2001, 1.0056,-0.0183, 0.0278,-0.0415,-0.0966,-1.6402,-1.4056, 2.6761
09-Sep-2020 11:01:45.063,-0.2106, 0.9931,-0.0331, 0.0491,-0.0270,-0.1172,-1.6382,-1.4047, 2.6786
09-Sep-2020 11:01:45.073,-0.2122, 0.9717,-0.0366, 0.0572,-0.0244,-0.1315,-1.6347,-1.4036, 2.6823
09-Sep-2020 11:01:45.083,-0.2092, 0.9546,-0.0228, 0.0513,-0.0263,-0.1377,-1.6310,-1.4023, 2.6864
09-Sep-2020 11:01:45.093,-0.2025, 0.9533, 0.0054, 0.0425,-0.0244,-0.1405,-1.6277,-1.4010, 2.6900
09-Sep-2020 11:01:45.103,-0.1899, 0.9656, 0.0302, 0.0351,-0.0467,-0.1339,-1.6249,-1.3997, 2.6931
09-Sep-2020 11:01:45.113,-0.1699, 0.9831, 0.0406, 0.0316,-0.0867,-0.1194,-1.6226,-1.3985, 2.6960
09-Sep-2020 11:01:45.123,-0.1470, 0.9960, 0.0438, 0.0185,-0.1111,-0.1065,-1.6210,-1.3974, 2.6985
09-Sep-2020 11:01:45.133,-0.1274, 1.0064, 0.0415, 0.0076,-0.1133,-0.0856,-1.6203,-1.3964, 2.7003
09-Sep-2020 11:01:45.143,-0.1175, 1.0136, 0.0370,-0.0098,-0.0855,-0.0658,-1.6204,-1.3956, 2.7013
09-Sep-2020 11:01:45.152,-0.1177, 1.0113, 0.0305,-0.0083,-0.0458,-0.0505,-1.6210,-1.3950, 2.7015
09-Sep-2020 11:01:45.163,-0.1235, 1.0052, 0.0190, 0.0005,-0.0002,-0.0356,-1.6213,-1.3945, 2.7018
09-Sep-2020 11:01:45.172,-0.1296, 1.0010, 0.0182, 0.0007, 0.0356,-0.0290,-1.6207,-1.3942, 2.7023
09-Sep-2020 11:01:45.183,-0.1353, 0.9915, 0.0365,-0.0241, 0.0539,-0.0224,-1.6202,-1.3939, 2.7025
09-Sep-2020 11:01:45.192,-0.1460, 0.9853, 0.0536,-0.0307, 0.0604,-0.0240,-1.6208,-1.3938, 2.7013
09-Sep-2020 11:01:45.202,-0.1559, 0.9786, 0.0542,-0.0342, 0.0598,-0.0284,-1.6218,-1.3936, 2.6997
09-Sep-2020 11:01:45.212,-0.1656, 0.9739, 0.0543,-0.0343, 0.0610,-0.0350,-1.6230,-1.3934, 2.6980
09-Sep-2020 11:01:45.222,-0.1717, 0.9718, 0.0499,-0.0404, 0.0535,-0.0407,-1.6242,-1.3932, 2.6962
09-Sep-2020 11:01:45.232,-0.1698, 0.9734, 0.0402,-0.0413, 0.0295,-0.0408,-1.6257,-1.3929, 2.6941
09-Sep-2020 11:01:45.242,-0.1631, 0.9749, 0.0228,-0.0344, 0.0133,-0.0375,-1.6275,-1.3927, 2.6920
09-Sep-2020 11:01:45.252,-0.1543, 0.9774, 0.0082,-0.0260, 0.0057,-0.0377,-1.6290,-1.3924, 2.6903
09-Sep-2020 11:01:45.262,-0.1496, 0.9804, 0.0051,-0.0151, 0.0295,-0.0303,-1.6301,-1.3922, 2.6892
09-Sep-2020 11:01:45.272,-0.1463, 0.9835, 0.0082,-0.0042, 0.0776,-0.0184,-1.6305,-1.3920, 2.6884
09-Sep-2020 11:01:45.282,-0.1468, 0.9843, 0.0091, 0.0065, 0.1308,-0.0132,-1.6300,-1.3919, 2.6883
09-Sep-2020 11:01:45.292,-0.1569, 0.9824, 0.0101, 0.0075, 0.1713,-0.0108,-1.6284,-1.3919, 2.6886
09-Sep-2020 11:01:45.302,-0.1741, 0.9833, 0.0155, 0.0083, 0.1943,-0.0110,-1.6263,-1.3918, 2.6890
09-Sep-2020 11:01:45.312,-0.1856, 0.9783, 0.0267, 0.0112, 0.1865,-0.0049,-1.6240,-1.3918, 2.6894
09-Sep-2020 11:01:45.322,-0.1906, 0.9743, 0.0390, 0.0011, 0.1409, 0.0038,-1.6216,-1.3918, 2.6900
09-Sep-2020 11:01:45.332,-0.1927, 0.9749, 0.0482,-0.0156, 0.0830, 0.0081,-1.6201,-1.3920, 2.6901
09-Sep-2020 11:01:45.342,-0.1975, 0.9789, 0.0564,-0.0346, 0.0320, 0.0121,-1.6199,-1.3921, 2.6895
09-Sep-2020 11:01:45.351,-0.2069, 0.9844, 0.0549,-0.0470,-0.0104, 0.0049,-1.6212,-1.3923, 2.6878
09-Sep-2020 11:01:45.362,-0.2097, 0.9887, 0.0388,-0.0446,-0.0504, 0.0053,-1.6237,-1.3925, 2.6854
09-Sep-2020 11:01:45.371,-0.2068, 0.9890, 0.0178,-0.0288,-0.0860, 0.0038,-1.6263,-1.3926, 2.6833
09-Sep-2020 11:01:45.381,-0.2030, 0.9863, 0.0068,-0.0276,-0.1095,-0.0045,-1.6286,-1.3927, 2.6818
09-Sep-2020 11:01:45.391,-0.1986, 0.9819, 0.0066,-0.0227,-0.1068,-0.0125,-1.6311,-1.3928, 2.6804
09-Sep-2020 11:01:45.402,-0.1901, 0.9771, 0.0084,-0.0070,-0.0775,-0.0139,-1.6332,-1.3927, 2.6793
09-Sep-2020 11:01:45.411,-0.1786, 0.9745, 0.0146,-0.0051,-0.0570,-0.0111,-1.6344,-1.3926, 2.6789
09-Sep-2020 11:01:45.421,-0.1646, 0.9739, 0.0220,-0.0029,-0.0412,-0.0038,-1.6353,-1.3925, 2.6787
09-Sep-2020 11:01:45.431,-0.1544, 0.9734, 0.0314, 0.0048,-0.0323, 0.0088,-1.6358,-1.3926, 2.6785
09-Sep-2020 11:01:45.441,-0.1496, 0.9754, 0.0423, 0.0019,-0.0435, 0.0179,-1.6360,-1.3927, 2.6787
09-Sep-2020 11:01:45.451,-0.1531, 0.9817, 0.0479,-0.0122,-0.0634, 0.0250,-1.6363,-1.3929, 2.6788
09-Sep-2020 11:01:45.461,-0.1624, 0.9858, 0.0500,-0.0263,-0.0700, 0.0255,-1.6375,-1.3932, 2.6782
09-Sep-2020 11:01:45.471,-0.1770, 0.9904, 0.0465,-0.0205,-0.0711, 0.0206,-1.6394,-1.3935, 2.6770
09-Sep-2020 11:01:45.481,-0.1897, 0.9933, 0.0388,-0.0111,-0.0754, 0.0128,-1.6411,-1.3937, 2.6760
09-Sep-2020 11:01:45.491,-0.1942, 0.9919, 0.0342,-0.0029,-0.0779, 0.0081,-1.6423,-1.3939, 2.6756
09-Sep-2020 11:01:45.501,-0.1889, 0.9861, 0.0330,-0.0040,-0.0865,-0.0013,-1.6432,-1.3941, 2.6755
09-Sep-2020 11:01:45.511,-0.1809, 0.9821, 0.0323,-0.0149,-0.0916,-0.0091,-1.6442,-1.3941, 2.6754
09-Sep-2020 11:01:45.521,-0.1739, 0.9781, 0.0380,-0.0147,-0.0852,-0.0187,-1.6457,-1.3941, 2.6747
09-Sep-2020 11:01:45.531,-0.1653, 0.9733, 0.0427,-0.0171,-0.0632,-0.0208,-1.6473,-1.3941, 2.6740
09-Sep-2020 11:01:45.541,-0.1544, 0.9704, 0.0517,-0.0096,-0.0580,-0.0131,-1.6488,-1.3939, 2.6731
09-Sep-2020 11:01:45.550,-0.1429, 0.9680, 0.0508,-0.0096,-0.0580,-0.0131,-1.6499,-1.3939, 2.6726
09-Sep-2020 11:01:45.561,-0.1384, 0.9662, 0.0512,-0.0089,-0.0382,-0.0058,-1.6505,-1.3939, 2.6726
09-Sep-2020 11:01:45.570,-0.1426, 0.9668, 0.0524,-0.0042,-0.0156,-0.0091,-1.6512,-1.3939, 2.6722
09-Sep-2020 11:01:45.581,-0.1494, 0.9716, 0.0384, 0.0098, 0.0064,-0.0047,-1.6515,-1.3939, 2.6722
09-Sep-2020 11:01:45.591,-0.1556, 0.9789, 0.0276, 0.0177, 0.0297,-0.0081,-1.6507,-1.3939, 2.6729
09-Sep-2020 11:01:45.601,-0.1639, 0.9855, 0.0315, 0.0190, 0.0328,-0.0194,-1.6494,-1.3939, 2.6740
09-Sep-2020 11:01:45.610,-0.1696, 0.9873, 0.0323, 0.0136, 0.0307,-0.0245,-1.6480,-1.3938, 2.6751
09-Sep-2020 11:01:45.620,-0.1710, 0.9819, 0.0300, 0.0144, 0.0386,-0.0306,-1.6468,-1.3937, 2.6760
09-Sep-2020 11:01:45.630,-0.1647, 0.9802, 0.0286, 0.0264, 0.0553,-0.0320,-1.6454,-1.3935, 2.6770
09-Sep-2020 11:01:45.640,-0.1560, 0.9793, 0.0254, 0.0332, 0.0751,-0.0225,-1.6434,-1.3933, 2.6785
09-Sep-2020 11:01:45.650,-0.1513, 0.9791, 0.0265, 0.0348, 0.0890,-0.0162,-1.6408,-1.3932, 2.6804
09-Sep-2020 11:01:45.660,-0.1532, 0.9766, 0.0361, 0.0283, 0.1061,-0.0097,-1.6380,-1.3932, 2.6824
09-Sep-2020 11:01:45.670,-0.1648, 0.9711, 0.0532, 0.0120, 0.1061,-0.0057,-1.6353,-1.3932, 2.6840
09-Sep-2020 11:01:45.680,-0.1773, 0.9657, 0.0542,-0.0057, 0.0808,-0.0023,-1.6335,-1.3932, 2.6848
09-Sep-2020 11:01:45.690,-0.1899, 0.9651, 0.0401,-0.0049, 0.0506,-0.0032,-1.6329,-1.3933, 2.6847
09-Sep-2020 11:01:45.700,-0.1945, 0.9700, 0.0257, 0.0150, 0.0327, 0.0004,-1.6325,-1.3933, 2.6846
09-Sep-2020 11:01:45.710,-0.1929, 0.9751, 0.0136, 0.0278, 0.0138,-0.0022,-1.6313,-1.3934, 2.6855
09-Sep-2020 11:01:45.720,-0.1884, 0.9789, 0.0101, 0.0216, 0.0127,-0.0071,-1.6295,-1.3935, 2.6871
09-Sep-2020 11:01:45.730,-0.1810, 0.9811, 0.0079, 0.0215, 0.0274,-0.0102,-1.6280,-1.3935, 2.6885
09-Sep-2020 11:01:45.740,-0.1729, 0.9820, 0.0037, 0.0346, 0.0638,-0.0072,-1.6264,-1.3935, 2.6899
09-Sep-2020 11:01:45.750,-0.1696, 0.9814, 0.0106, 0.0399, 0.1015,-0.0027,-1.6239,-1.3936, 2.6919
09-Sep-2020 11:01:45.759,-0.1706, 0.9797, 0.0244, 0.0408, 0.1227,-0.0008,-1.6208,-1.3936, 2.6940
09-Sep-2020 11:01:45.769,-0.1750, 0.9782, 0.0294, 0.0408, 0.1227,-0.0008,-1.6174,-1.3937, 2.6962
09-Sep-2020 11:01:45.779,-0.1808, 0.9745, 0.0269, 0.0344, 0.0960, 0.0088,-1.6138,-1.3938, 2.6987
09-Sep-2020 11:01:45.789,-0.1856, 0.9756, 0.0240, 0.0221, 0.0658, 0.0140,-1.6108,-1.3940, 2.7007
09-Sep-2020 11:01:45.799,-0.1876, 0.9809, 0.0199, 0.0166, 0.0492, 0.0193,-1.6087,-1.3942, 2.7022
09-Sep-2020 11:01:45.809,-0.1868, 0.9932, 0.0159, 0.0248, 0.0396, 0.0282,-1.6070,-1.3944, 2.7034
09-Sep-2020 11:01:45.819,-0.1837, 1.0040, 0.0189, 0.0188, 0.0342, 0.0285,-1.6051,-1.3948, 2.7050
09-Sep-2020 11:01:45.829,-0.1838, 1.0080, 0.0312, 0.0131, 0.0317, 0.0251,-1.6035,-1.3951, 2.7062
09-Sep-2020 11:01:45.839,-0.1893, 1.0086, 0.0379, 0.0203, 0.0254, 0.0205,-1.6023,-1.3955, 2.7071
09-Sep-2020 11:01:45.849,-0.2010, 0.9993, 0.0358, 0.0240, 0.0141, 0.0110,-1.6008,-1.3958, 2.7084
09-Sep-2020 11:01:45.859,-0.2079, 0.9868, 0.0303, 0.0050,-0.0190, 0.0073,-1.5994,-1.3960, 2.7097
09-Sep-2020 11:01:45.869,-0.2062, 0.9758, 0.0158, 0.0019,-0.0441, 0.0007,-1.5991,-1.3961, 2.7102
09-Sep-2020 11:01:45.879,-0.1987, 0.9664, 0.0084, 0.0043,-0.0407, 0.0006,-1.5993,-1.3962, 2.7105
09-Sep-2020 11:01:45.889,-0.1851, 0.9659, 0.0172, 0.0033,-0.0204, 0.0066,-1.5993,-1.3962, 2.7108
09-Sep-2020 11:01:45.899,-0.1674, 0.9742, 0.0265, 0.0028,-0.0147, 0.0188,-1.5992,-1.3964, 2.7112
09-Sep-2020 11:01:45.909,-0.1510, 0.9801, 0.0255, 0.0161,-0.0077, 0.0296,-1.5990,-1.3966, 2.7115
09-Sep-2020 11:01:45.919,-0.1473, 0.9836, 0.0251, 0.0226, 0.0055, 0.0398,-1.5982,-1.3970, 2.7125
09-Sep-2020 11:01:45.929,-0.1543, 0.9856, 0.0235, 0.0312, 0.0405, 0.0418,-1.5968,-1.3975, 2.7138
09-Sep-2020 11:01:45.939,-0.1652, 0.9871, 0.0204, 0.0338, 0.0729, 0.0380,-1.5947,-1.3979, 2.7155
09-Sep-2020 11:01:45.949,-0.1777, 0.9850, 0.0194, 0.0278, 0.1076, 0.0309,-1.5921,-1.3984, 2.7175
09-Sep-2020 11:01:45.959,-0.1894, 0.9797, 0.0266, 0.0200, 0.1273, 0.0227,-1.5892,-1.3987, 2.7193
09-Sep-2020 11:01:45.968,-0.1983, 0.9718, 0.0312, 0.0178, 0.1248, 0.0148,-1.5866,-1.3990, 2.7207
09-Sep-2020 11:01:45.978,-0.2051, 0.9690, 0.0274, 0.0144, 0.0930, 0.0125,-1.5843,-1.3992, 2.7218
09-Sep-2020 11:01:45.988,-0.2088, 0.9685, 0.0222, 0.0144, 0.0930, 0.0125,-1.5824,-1.3994, 2.7228
09-Sep-2020 11:01:45.998,-0.2069, 0.9682, 0.0154, 0.0196, 0.0516, 0.0157,-1.5806,-1.3996, 2.7239
09-Sep-2020 11:01:46.008,-0.1978, 0.9687, 0.0112, 0.0238, 0.0347, 0.0176,-1.5788,-1.3999, 2.7252
09-Sep-2020 11:01:46.018,-0.1836, 0.9709, 0.0155, 0.0231, 0.0471, 0.0232,-1.5770,-1.4001, 2.7266
09-Sep-2020 11:01:46.028,-0.1718, 0.9718, 0.0257, 0.0258, 0.0681, 0.0295,-1.5751,-1.4004, 2.7281
09-Sep-2020 11:01:46.038,-0.1653, 0.9731, 0.0253, 0.0339, 0.0933, 0.0281,-1.5728,-1.4008, 2.7298
09-Sep-2020 11:01:46.048,-0.1625, 0.9748, 0.0181, 0.0395, 0.1244, 0.0255,-1.5699,-1.4011, 2.7318
09-Sep-2020 11:01:46.058,-0.1647, 0.9739, 0.0108, 0.0552, 0.1623, 0.0246,-1.5663,-1.4014, 2.7342
09-Sep-2020 11:01:46.068,-0.1708, 0.9724, 0.0011, 0.0631, 0.1888, 0.0200,-1.5615,-1.4017, 2.7375
09-Sep-2020 11:01:46.078,-0.1781, 0.9739,-0.0084, 0.0731, 0.2095, 0.0153,-1.5558,-1.4019, 2.7413
09-Sep-2020 11:01:46.088,-0.1837, 0.9759,-0.0074, 0.0750, 0.2231, 0.0225,-1.5494,-1.4021, 2.7458
09-Sep-2020 11:01:46.098,-0.1896, 0.9798, 0.0063, 0.0640, 0.2116, 0.0265,-1.5427,-1.4023, 2.7503
09-Sep-2020 11:01:46.108,-0.1951, 0.9862, 0.0192, 0.0491, 0.1765, 0.0271,-1.5368,-1.4026, 2.7542
09-Sep-2020 11:01:46.118,-0.1953, 0.9908, 0.0251, 0.0337, 0.1275, 0.0349,-1.5321,-1.4030, 2.7572
09-Sep-2020 11:01:46.128,-0.1935, 0.9930, 0.0254, 0.0328, 0.0820, 0.0481,-1.5287,-1.4034, 2.7594
09-Sep-2020 11:01:46.138,-0.1895, 0.9960, 0.0218, 0.0422, 0.0425, 0.0530,-1.5257,-1.4039, 2.7617
09-Sep-2020 11:01:46.147,-0.1815, 0.9948, 0.0158, 0.0390, 0.0085, 0.0559,-1.5225,-1.4045, 2.7644
09-Sep-2020 11:01:46.157,-0.1765, 0.9931, 0.0082, 0.0415, 0.0007, 0.0565,-1.5196,-1.4051, 2.7673
09-Sep-2020 11:01:46.167,-0.1783, 0.9864, 0.0101, 0.0390, 0.0280, 0.0584,-1.5167,-1.4057, 2.7702
09-Sep-2020 11:01:46.177,-0.1815, 0.9784, 0.0094, 0.0368, 0.0595, 0.0541,-1.5137,-1.4063, 2.7729
09-Sep-2020 11:01:46.188,-0.1822, 0.9760, 0.0041, 0.0353, 0.0749, 0.0583,-1.5107,-1.4068, 2.7755
09-Sep-2020 11:01:46.198,-0.1800, 0.9790,-0.0028, 0.0398, 0.0704, 0.0623,-1.5075,-1.4074, 2.7780
09-Sep-2020 11:01:46.207,-0.1766, 0.9860,-0.0003, 0.0414, 0.0593, 0.0661,-1.5040,-1.4080, 2.7808
09-Sep-2020 11:01:46.218,-0.1746, 0.9935, 0.0073, 0.0446, 0.0481, 0.0735,-1.5006,-1.4087, 2.7837
09-Sep-2020 11:01:46.227,-0.1742, 0.9949, 0.0109, 0.0527, 0.0275, 0.0781,-1.4970,-1.4094, 2.7869
09-Sep-2020 11:01:46.237,-0.1763, 0.9930, 0.0112, 0.0529,-0.0014, 0.0777,-1.4930,-1.4102, 2.7906
09-Sep-2020 11:01:46.247,-0.1730, 0.9868, 0.0127, 0.0424,-0.0255, 0.0816,-1.4894,-1.4110, 2.7943
09-Sep-2020 11:01:46.257,-0.1674, 0.9801, 0.0183, 0.0338,-0.0443, 0.0850,-1.4865,-1.4118, 2.7975
09-Sep-2020 11:01:46.267,-0.1624, 0.9803, 0.0150, 0.0291,-0.0499, 0.0798,-1.4842,-1.4127, 2.8003
09-Sep-2020 11:01:46.277,-0.1577, 0.9853, 0.0099, 0.0413,-0.0359, 0.0761,-1.4821,-1.4135, 2.8029
09-Sep-2020 11:01:46.287,-0.1593, 0.9890, 0.0039, 0.0603,-0.0082, 0.0742,-1.4792,-1.4143, 2.8063
09-Sep-2020 11:01:46.297,-0.1669, 0.9884,-0.0062, 0.0677, 0.0119, 0.0658,-1.4750,-1.4150, 2.8107
09-Sep-2020 11:01:46.307,-0.1739, 0.9867,-0.0150, 0.0696, 0.0291, 0.0553,-1.4700,-1.4156, 2.8155
09-Sep-2020 11:01:46.317,-0.1805, 0.9809,-0.0180, 0.0677, 0.0484, 0.0514,-1.4649,-1.4162, 2.8205
09-Sep-2020 11:01:46.327,-0.1846, 0.9736,-0.0111, 0.0596, 0.0587, 0.0560,-1.4596,-1.4167, 2.8254
09-Sep-2020 11:01:46.337,-0.1881, 0.9702,-0.0047, 0.0451, 0.0532, 0.0633,-1.4548,-1.4172, 2.8297
09-Sep-2020 11:01:46.347,-0.1910, 0.9755, 0.0017, 0.0319, 0.0122, 0.0709,-1.4508,-1.4178, 2.8332
09-Sep-2020 11:01:46.357,-0.1901, 0.9805, 0.0035, 0.0198,-0.0551, 0.0755,-1.4481,-1.4186, 2.8359
09-Sep-2020 11:01:46.367,-0.1874, 0.9833, 0.0010, 0.0234,-0.1194, 0.0780,-1.4465,-1.4193, 2.8380
09-Sep-2020 11:01:46.377,-0.1829, 0.9841,-0.0027, 0.0314,-0.1632, 0.0771,-1.4454,-1.4201, 2.8404
09-Sep-2020 11:01:46.387,-0.1770, 0.9854,-0.0086, 0.0434,-0.1911, 0.0764,-1.4441,-1.4209, 2.8434
09-Sep-2020 11:01:46.396,-0.1711, 0.9866,-0.0145, 0.0448,-0.2095, 0.0732,-1.4423,-1.4217, 2.8471
09-Sep-2020 11:01:46.406,-0.1647, 0.9872,-0.0194, 0.0466,-0.2127, 0.0699,-1.4405,-1.4224, 2.8510
09-Sep-2020 11:01:46.416,-0.1602, 0.9859,-0.0257, 0.0467,-0.2100, 0.0659,-1.4388,-1.4230, 2.8549
09-Sep-2020 11:01:46.426,-0.1592, 0.9857,-0.0268, 0.0480,-0.1977, 0.0561,-1.4370,-1.4236, 2.8589
09-Sep-2020 11:01:46.436,-0.1601, 0.9869,-0.0216, 0.0457,-0.1827, 0.0539,-1.4351,-1.4242, 2.8628
09-Sep-2020 11:01:46.446,-0.1622, 0.9899,-0.0158, 0.0366,-0.1916, 0.0497,-1.4332,-1.4247, 2.8665
09-Sep-2020 11:01:46.456,-0.1629, 0.9884,-0.0111, 0.0193,-0.2178, 0.0402,-1.4321,-1.4251, 2.8697
09-Sep-2020 11:01:46.466,-0.1617, 0.9862,-0.0098, 0.0114,-0.2448, 0.0357,-1.4322,-1.4255, 2.8717
09-Sep-2020 11:01:46.476,-0.1614, 0.9785,-0.0116, 0.0091,-0.2697, 0.0295,-1.4332,-1.4259, 2.8732
09-Sep-2020 11:01:46.486,-0.1605, 0.9690,-0.0207, 0.0101,-0.2919, 0.0205,-1.4346,-1.4262, 2.8745
09-Sep-2020 11:01:46.496,-0.1560, 0.9657,-0.0335, 0.0069,-0.3077, 0.0067,-1.4364,-1.4264, 2.8756
09-Sep-2020 11:01:46.506,-0.1490, 0.9713,-0.0450, 0.0201,-0.2942,-0.0025,-1.4384,-1.4265, 2.8767
09-Sep-2020 11:01:46.516,-0.1402, 0.9873,-0.0511, 0.0360,-0.2706,-0.0036,-1.4395,-1.4265, 2.8786
09-Sep-2020 11:01:46.526,-0.1288, 1.0065,-0.0473, 0.0463,-0.2437, 0.0032,-1.4394,-1.4265, 2.8813
09-Sep-2020 11:01:46.536,-0.1196, 1.0195,-0.0406, 0.0534,-0.2420, 0.0145,-1.4384,-1.4265, 2.8849
09-Sep-2020 11:01:46.546,-0.1091, 1.0166,-0.0336, 0.0590,-0.2797, 0.0224,-1.4368,-1.4266, 2.8890
09-Sep-2020 11:01:46.556,-0.0957, 0.9976,-0.0229, 0.0583,-0.3161, 0.0298,-1.4351,-1.4268, 2.8935
09-Sep-2020 11:01:46.566,-0.0814, 0.9850,-0.0061, 0.0525,-0.3419, 0.0432,-1.4338,-1.4271, 2.8980
09-Sep-2020 11:01:46.576,-0.0685, 0.9811, 0.0061, 0.0525,-0.3419, 0.0432,-1.4330,-1.4275, 2.9023
09-Sep-2020 11:01:46.586,-0.0574, 0.9816, 0.0134, 0.0307,-0.3067, 0.0579,-1.4327,-1.4281, 2.9059
09-Sep-2020 11:01:46.596,-0.0511, 0.9864, 0.0133, 0.0182,-0.2569, 0.0577,-1.4328,-1.4287, 2.9090
09-Sep-2020 11:01:46.606,-0.0472, 0.9915, 0.0102, 0.0103,-0.2058, 0.0510,-1.4332,-1.4293, 2.9112
09-Sep-2020 11:01:46.616,-0.0415, 0.9958, 0.0103, 0.0021,-0.1557, 0.0512,-1.4337,-1.4298, 2.9127
09-Sep-2020 11:01:46.625,-0.0352, 0.9976, 0.0069, 0.0012,-0.1117, 0.0593,-1.4343,-1.4304, 2.9137
09-Sep-2020 11:01:46.635,-0.0307, 0.9998, 0.0022, 0.0041,-0.0818, 0.0663,-1.4344,-1.4310, 2.9147
09-Sep-2020 11:01:46.645,-0.0331, 1.0019,-0.0044, 0.0022,-0.0698, 0.0730,-1.4340,-1.4318, 2.9159
09-Sep-2020 11:01:46.655,-0.0373, 1.0043,-0.0119, 0.0027,-0.0729, 0.0891,-1.4336,-1.4326, 2.9171
09-Sep-2020 11:01:46.665,-0.0444, 1.0059,-0.0179, 0.0125,-0.0730, 0.1043,-1.4329,-1.4336, 2.9185
09-Sep-2020 11:01:46.675,-0.0535, 1.0040,-0.0214, 0.0209,-0.0708, 0.1142,-1.4315,-1.4348, 2.9207
09-Sep-2020 11:01:46.689,-0.0701, 0.9982,-0.0276, 0.0329,-0.0687, 0.1170,-1.4292,-1.4360, 2.9237
09-Sep-2020 11:01:46.695,-0.0857, 0.9941,-0.0323, 0.0421,-0.0731, 0.1113,-1.4260,-1.4373, 2.9276
09-Sep-2020 11:01:46.705,-0.0962, 0.9869,-0.0393, 0.0591,-0.0885, 0.1039,-1.4221,-1.4385, 2.9324
09-Sep-2020 11:01:46.715,-0.1056, 0.9854,-0.0421, 0.0714,-0.1068, 0.0918,-1.4171,-1.4396, 2.9383
09-Sep-2020 11:01:46.725,-0.1128, 0.9883,-0.0354, 0.0771,-0.1059, 0.0767,-1.4114,-1.4405, 2.9451
09-Sep-2020 11:01:46.735,-0.1170, 0.9928,-0.0204, 0.0707,-0.0937, 0.0614,-1.4053,-1.4413, 2.9523
09-Sep-2020 11:01:46.745,-0.1158, 0.9987,-0.0058, 0.0561,-0.0866, 0.0484,-1.3997,-1.4420, 2.9589
09-Sep-2020 11:01:46.755,-0.1065, 1.0012, 0.0039, 0.0293,-0.0960, 0.0438,-1.3952,-1.4425, 2.9643
09-Sep-2020 11:01:46.765,-0.0951, 1.0026, 0.0061, 0.0108,-0.1125, 0.0437,-1.3927,-1.4430, 2.9678
09-Sep-2020 11:01:46.774,-0.0837, 1.0038, 0.0045,-0.0092,-0.1219, 0.0486,-1.3920,-1.4435, 2.9697
09-Sep-2020 11:01:46.784,-0.0769, 1.0029,-0.0007,-0.0170,-0.1179, 0.0516,-1.3926,-1.4441, 2.9703
09-Sep-2020 11:01:46.795,-0.0725, 1.0041,-0.0102,-0.0095,-0.1059, 0.0558,-1.3937,-1.4447, 2.9704
09-Sep-2020 11:01:46.804,-0.0722, 0.9995,-0.0227,-0.0038,-0.0924, 0.0568,-1.3941,-1.4454, 2.9711
09-Sep-2020 11:01:46.814,-0.0736, 0.9912,-0.0317, 0.0053,-0.0826, 0.0572,-1.3940,-1.4460, 2.9721
09-Sep-2020 11:01:46.824,-0.0791, 0.9856,-0.0343, 0.0089,-0.0632, 0.0550,-1.3933,-1.4466, 2.9737
09-Sep-2020 11:01:46.834,-0.0872, 0.9840,-0.0319, 0.0150,-0.0378, 0.0568,-1.3921,-1.4473, 2.9755
09-Sep-2020 11:01:46.844,-0.0977, 0.9848,-0.0278, 0.0185,-0.0121, 0.0504,-1.3902,-1.4479, 2.9778
09-Sep-2020 11:01:46.854,-0.1106, 0.9894,-0.0222, 0.0155,-0.0036, 0.0422,-1.3879,-1.4484, 2.9803
09-Sep-2020 11:01:46.864,-0.1219, 0.9920,-0.0123, 0.0023,-0.0038, 0.0325,-1.3859,-1.4489, 2.9824
09-Sep-2020 11:01:46.874,-0.1239, 0.9912,-0.0062,-0.0141,-0.0116, 0.0197,-1.3849,-1.4493, 2.9834
09-Sep-2020 11:01:46.884,-0.1160, 0.9890,-0.0023,-0.0294,-0.0232, 0.0159,-1.3854,-1.4497, 2.9831
09-Sep-2020 11:01:46.894,-0.1001, 0.9909,-0.0016,-0.0396,-0.0213, 0.0208,-1.3871,-1.4500, 2.9816
09-Sep-2020 11:01:46.904,-0.0862, 0.9952,-0.0041,-0.0433,-0.0043, 0.0297,-1.3895,-1.4504, 2.9793
09-Sep-2020 11:01:46.914,-0.0739, 0.9984,-0.0081,-0.0388, 0.0129, 0.0450,-1.3920,-1.4508, 2.9769
09-Sep-2020 11:01:46.924,-0.0662, 1.0024,-0.0122,-0.0386, 0.0421, 0.0595,-1.3939,-1.4514, 2.9748
09-Sep-2020 11:01:46.934,-0.0645, 1.0083,-0.0132,-0.0339, 0.0808, 0.0702,-1.3953,-1.4521, 2.9730
09-Sep-2020 11:01:46.944,-0.0675, 1.0090,-0.0108,-0.0303, 0.1011, 0.0765,-1.3958,-1.4529, 2.9717
09-Sep-2020 11:01:46.954,-0.0737, 1.0034,-0.0074,-0.0392, 0.1039, 0.0787,-1.3959,-1.4538, 2.9706
09-Sep-2020 11:01:46.964,-0.0833, 0.9950,-0.0033,-0.0501, 0.0881, 0.0754,-1.3967,-1.4547, 2.9688
09-Sep-2020 11:01:46.974,-0.0916, 0.9894,-0.0019,-0.0558, 0.0818, 0.0747,-1.3985,-1.4556, 2.9661
09-Sep-2020 11:01:46.984,-0.1006, 0.9919,-0.0072,-0.0478, 0.0875, 0.0673,-1.4009,-1.4565, 2.9629
