Timestamp,accelX,accelY,accelZ,gyroX(rad/s),gyroY(rad/s),gyroZ(rad/s),Roll(rads),Pitch(rads),Yaw(rads)
09-Sep-2020 11:19:01.861,-0.0197,-0.5470,-0.8696,-0.0939, 0.1559,-0.0573,-0.0191, 0.5945,-0.7337
09-Sep-2020 11:19:01.863,-0.0180,-0.5472,-0.8779,-0.0582, 0.1388,-0.0771,-0.0191, 0.5945,-0.7337
09-Sep-2020 11:19:01.873,-0.0109,-0.5480,-0.8761,-0.0002, 0.1009,-0.0834,-0.0174, 0.5941,-0.7345
09-Sep-2020 11:19:01.883,-0.0058,-0.5533,-0.8623, 0.0553, 0.0473,-0.0803,-0.0160, 0.5941,-0.7354
09-Sep-2020 11:19:01.893,-0.0128,-0.5577,-0.8447, 0.0866, 0.0057,-0.0594,-0.0151, 0.5947,-0.7362
09-Sep-2020 11:19:01.903,-0.0277,-0.5597,-0.8282, 0.1054,-0.0084,-0.0406,-0.0147, 0.5956,-0.7368
09-Sep-2020 11:19:01.913,-0.0390,-0.5653,-0.8185, 0.0933, 0.0147,-0.0237,-0.0146, 0.5966,-0.7372
09-Sep-2020 11:19:01.923,-0.0362,-0.5650,-0.8168, 0.0752, 0.0325,-0.0038,-0.0143, 0.5976,-0.7374
09-Sep-2020 11:19:01.933,-0.0249,-0.5576,-0.8186, 0.0506, 0.0451, 0.0168,-0.0140, 0.5983,-0.7373
09-Sep-2020 11:19:01.942,-0.0245,-0.5522,-0.8212, 0.0438, 0.0510, 0.0232,-0.0138, 0.5988,-0.7370
09-Sep-2020 11:19:01.953,-0.0239,-0.5504,-0.8161, 0.0353, 0.0440, 0.0178,-0.0135, 0.5992,-0.7367
09-Sep-2020 11:19:01.962,-0.0192,-0.5491,-0.8110, 0.0191, 0.0336, 0.0056,-0.0132, 0.5995,-0.7364
09-Sep-2020 11:19:01.973,-0.0160,-0.5489,-0.8093, 0.0128, 0.0461, 0.0031,-0.0129, 0.5997,-0.7362
09-Sep-2020 11:19:01.982,-0.0207,-0.5469,-0.8064, 0.0072, 0.0471,-0.0024,-0.0126, 0.5998,-0.7361
09-Sep-2020 11:19:01.992,-0.0227,-0.5486,-0.8030,-0.0090, 0.0402,-0.0096,-0.0122, 0.5999,-0.7360
09-Sep-2020 11:19:02.002,-0.0236,-0.5535,-0.8025,-0.0335, 0.0434,-0.0059,-0.0118, 0.5999,-0.7360
09-Sep-2020 11:19:02.012,-0.0288,-0.5569,-0.8031,-0.0515, 0.0722,-0.0039,-0.0114, 0.5996,-0.7360
09-Sep-2020 11:19:02.023,-0.0310,-0.5589,-0.8154,-0.0655, 0.0883, 0.0021,-0.0108, 0.5991,-0.7359
09-Sep-2020 11:19:02.032,-0.0267,-0.5585,-0.8304,-0.0621, 0.0915,-0.0033,-0.0100, 0.5985,-0.7358
09-Sep-2020 11:19:02.042,-0.0167,-0.5552,-0.8366,-0.0499, 0.0734,-0.0033,-0.0092, 0.5979,-0.7358
09-Sep-2020 11:19:02.052,-0.0086,-0.5496,-0.8329,-0.0396, 0.0492,-0.0060,-0.0085, 0.5974,-0.7357
09-Sep-2020 11:19:02.062,-0.0070,-0.5483,-0.8271,-0.0337, 0.0278,-0.0117,-0.0081, 0.5971,-0.7357
09-Sep-2020 11:19:02.072,-0.0063,-0.5524,-0.8150,-0.0445, 0.0160,-0.0179,-0.0078, 0.5967,-0.7357
09-Sep-2020 11:19:02.082,-0.0079,-0.5551,-0.8071,-0.0637, 0.0091,-0.0280,-0.0076, 0.5963,-0.7358
09-Sep-2020 11:19:02.092,-0.0093,-0.5527,-0.8058,-0.0877, 0.0277,-0.0369,-0.0073, 0.5957,-0.7361
09-Sep-2020 11:19:02.102,-0.0097,-0.5494,-0.8120,-0.1059, 0.0535,-0.0476,-0.0069, 0.5949,-0.7364
09-Sep-2020 11:19:02.112,-0.0142,-0.5485,-0.8265,-0.1132, 0.0776,-0.0628,-0.0061, 0.5939,-0.7369
09-Sep-2020 11:19:02.122,-0.0089,-0.5516,-0.8409,-0.1113, 0.0834,-0.0595,-0.0051, 0.5928,-0.7375
09-Sep-2020 11:19:02.132, 0.0047,-0.5551,-0.8491,-0.0961, 0.0643,-0.0469,-0.0039, 0.5917,-0.7382
09-Sep-2020 11:19:02.142, 0.0101,-0.5514,-0.8438,-0.0763, 0.0367,-0.0351,-0.0030, 0.5908,-0.7386
09-Sep-2020 11:19:02.152, 0.0112,-0.5493,-0.8289,-0.0688, 0.0005,-0.0317,-0.0025, 0.5901,-0.7390
09-Sep-2020 11:19:02.161, 0.0116,-0.5581,-0.8089,-0.0862,-0.0101,-0.0293,-0.0023, 0.5894,-0.7393
09-Sep-2020 11:19:02.172, 0.0099,-0.5573,-0.8008,-0.1243,-0.0123,-0.0068,-0.0023, 0.5886,-0.7395
09-Sep-2020 11:19:02.182, 0.0091,-0.5466,-0.8107,-0.1563,-0.0149, 0.0117,-0.0024, 0.5874,-0.7395
09-Sep-2020 11:19:02.192, 0.0004,-0.5414,-0.8345,-0.1724, 0.0015, 0.0118,-0.0027, 0.5859,-0.7393
09-Sep-2020 11:19:02.202,-0.0052,-0.5418,-0.8525,-0.1628, 0.0185,-0.0016,-0.0028, 0.5842,-0.7391
09-Sep-2020 11:19:02.211,-0.0068,-0.5423,-0.8648,-0.1316, 0.0184,-0.0091,-0.0027, 0.5827,-0.7390
09-Sep-2020 11:19:02.221,-0.0112,-0.5398,-0.8661,-0.0908, 0.0249,-0.0184,-0.0025, 0.5814,-0.7390
09-Sep-2020 11:19:02.232,-0.0117,-0.5406,-0.8680,-0.0603, 0.0251,-0.0146,-0.0022, 0.5805,-0.7392
09-Sep-2020 11:19:02.241,-0.0144,-0.5422,-0.8625,-0.0335, 0.0364,-0.0100,-0.0019, 0.5800,-0.7393
09-Sep-2020 11:19:02.251,-0.0100,-0.5429,-0.8605,-0.0189, 0.0337,-0.0034,-0.0015, 0.5797,-0.7393
09-Sep-2020 11:19:02.261,-0.0036,-0.5415,-0.8568,-0.0103, 0.0357,-0.0008,-0.0012, 0.5795,-0.7393
09-Sep-2020 11:19:02.271, 0.0049,-0.5421,-0.8574, 0.0056, 0.0303,-0.0002,-0.0009, 0.5795,-0.7392
09-Sep-2020 11:19:02.282, 0.0093,-0.5407,-0.8563, 0.0155, 0.0240, 0.0009,-0.0007, 0.5796,-0.7391
09-Sep-2020 11:19:02.291, 0.0110,-0.5390,-0.8486, 0.0330, 0.0208,-0.0022,-0.0005, 0.5798,-0.7390
09-Sep-2020 11:19:02.301, 0.0087,-0.5366,-0.8481, 0.0440, 0.0174,-0.0051,-0.0003, 0.5801,-0.7390
09-Sep-2020 11:19:02.311, 0.0189,-0.5385,-0.8407, 0.0505, 0.0018, 0.0039,-0.0002, 0.5806,-0.7389
09-Sep-2020 11:19:02.321, 0.0166,-0.5411,-0.8312, 0.0424,-0.0099, 0.0266,-0.0003, 0.5811,-0.7388
09-Sep-2020 11:19:02.331, 0.0036,-0.5410,-0.8224, 0.0271,-0.0129, 0.0386,-0.0006, 0.5815,-0.7384
09-Sep-2020 11:19:02.341,-0.0001,-0.5461,-0.8172, 0.0085,-0.0303, 0.0376,-0.0011, 0.5818,-0.7378
09-Sep-2020 11:19:02.351, 0.0040,-0.5504,-0.8215,-0.0063,-0.0609, 0.0340,-0.0017, 0.5819,-0.7373
09-Sep-2020 11:19:02.361, 0.0100,-0.5492,-0.8272,-0.0218,-0.0982, 0.0371,-0.0026, 0.5818,-0.7368
09-Sep-2020 11:19:02.371, 0.0134,-0.5505,-0.8249,-0.0253,-0.1229, 0.0538,-0.0038, 0.5816,-0.7363
09-Sep-2020 11:19:02.380, 0.0074,-0.5552,-0.8177,-0.0269,-0.1060, 0.0722,-0.0054, 0.5814,-0.7356
09-Sep-2020 11:19:02.390,-0.0117,-0.5607,-0.8229,-0.0266,-0.0146, 0.0817,-0.0069, 0.5811,-0.7346
09-Sep-2020 11:19:02.400,-0.0205,-0.5698,-0.8258,-0.0259, 0.0885, 0.0771,-0.0076, 0.5808,-0.7336
09-Sep-2020 11:19:02.410,-0.0185,-0.5715,-0.8186,-0.0357, 0.1088, 0.0680,-0.0073, 0.5806,-0.7326
09-Sep-2020 11:19:02.420,-0.0255,-0.5659,-0.8239,-0.0364, 0.1093, 0.0617,-0.0067, 0.5803,-0.7317
09-Sep-2020 11:19:02.430,-0.0107,-0.5663,-0.8355,-0.0528, 0.1478, 0.0780,-0.0061, 0.5799,-0.7309
09-Sep-2020 11:19:02.440, 0.0141,-0.5743,-0.8484,-0.0729, 0.1709, 0.1238,-0.0052, 0.5795,-0.7299
09-Sep-2020 11:19:02.450, 0.0245,-0.5706,-0.8515,-0.0800, 0.1580, 0.1627,-0.0043, 0.5788,-0.7283
09-Sep-2020 11:19:02.460, 0.0308,-0.5689,-0.8459,-0.0754, 0.1161, 0.1820,-0.0038, 0.5780,-0.7263
09-Sep-2020 11:19:02.470, 0.0312,-0.5685,-0.8393,-0.0634, 0.0809, 0.1947,-0.0039, 0.5773,-0.7241
09-Sep-2020 11:19:02.480, 0.0242,-0.5684,-0.8346,-0.0474, 0.0675, 0.1969,-0.0044, 0.5767,-0.7217
09-Sep-2020 11:19:02.490, 0.0148,-0.5631,-0.8353,-0.0316, 0.0604, 0.1910,-0.0051, 0.5763,-0.7193
09-Sep-2020 11:19:02.500, 0.0111,-0.5597,-0.8291,-0.0190, 0.0582, 0.1755,-0.0058, 0.5761,-0.7169
09-Sep-2020 11:19:02.510, 0.0170,-0.5586,-0.8169,-0.0176, 0.0467, 0.1734,-0.0065, 0.5759,-0.7147
09-Sep-2020 11:19:02.520, 0.0248,-0.5592,-0.8046,-0.0301, 0.0389, 0.1849,-0.0072, 0.5758,-0.7126
09-Sep-2020 11:19:02.530, 0.0249,-0.5589,-0.8110,-0.0484, 0.0353, 0.1937,-0.0080, 0.5755,-0.7103
09-Sep-2020 11:19:02.540, 0.0296,-0.5607,-0.8085,-0.0645, 0.0388, 0.2035,-0.0089, 0.5751,-0.7080
09-Sep-2020 11:19:02.550, 0.0319,-0.5539,-0.8119,-0.0752, 0.0405, 0.2131,-0.0098, 0.5745,-0.7055
09-Sep-2020 11:19:02.560, 0.0348,-0.5468,-0.8138,-0.0781, 0.0365, 0.2195,-0.0108, 0.5737,-0.7029
09-Sep-2020 11:19:02.570, 0.0367,-0.5448,-0.8106,-0.0904, 0.0452, 0.2358,-0.0119, 0.5730,-0.7003
09-Sep-2020 11:19:02.579, 0.0362,-0.5403,-0.8117,-0.1059, 0.0484, 0.2432,-0.0129, 0.5721,-0.6974
09-Sep-2020 11:19:02.589, 0.0317,-0.5319,-0.8160,-0.1148, 0.0854, 0.2546,-0.0140, 0.5711,-0.6945
09-Sep-2020 11:19:02.599, 0.0322,-0.5305,-0.8223,-0.1269, 0.1285, 0.2538,-0.0148, 0.5700,-0.6915
09-Sep-2020 11:19:02.609, 0.0367,-0.5340,-0.8185,-0.1353, 0.1768, 0.2608,-0.0149, 0.5689,-0.6885
09-Sep-2020 11:19:02.619, 0.0398,-0.5308,-0.8285,-0.1456, 0.2036, 0.2647,-0.0147, 0.5677,-0.6855
09-Sep-2020 11:19:02.629, 0.0428,-0.5316,-0.8462,-0.1364, 0.1922, 0.2760,-0.0141, 0.5665,-0.6824
09-Sep-2020 11:19:02.639, 0.0497,-0.5334,-0.8568,-0.1046, 0.1810, 0.2951,-0.0137, 0.5653,-0.6793
09-Sep-2020 11:19:02.650, 0.0568,-0.5397,-0.8620,-0.0633, 0.1683, 0.3250,-0.0135, 0.5644,-0.6759
09-Sep-2020 11:19:02.659, 0.0567,-0.5509,-0.8572,-0.0183, 0.2021, 0.3634,-0.0139, 0.5638,-0.6720
09-Sep-2020 11:19:02.669, 0.0515,-0.5625,-0.8416, 0.0252, 0.2436, 0.3850,-0.0142, 0.5636,-0.6676
09-Sep-2020 11:19:02.679, 0.0527,-0.5715,-0.8202, 0.0551, 0.2608, 0.3970,-0.0143, 0.5638,-0.6630
09-Sep-2020 11:19:02.689, 0.0605,-0.5745,-0.8008, 0.0594, 0.2496, 0.3895,-0.0142, 0.5643,-0.6583
09-Sep-2020 11:19:02.699, 0.0641,-0.5752,-0.7898, 0.0482, 0.2286, 0.3781,-0.0143, 0.5648,-0.6536
09-Sep-2020 11:19:02.709, 0.0726,-0.5820,-0.7821, 0.0206, 0.1983, 0.3576,-0.0144, 0.5653,-0.6491
09-Sep-2020 11:19:02.719, 0.0764,-0.5877,-0.7759,-0.0183, 0.1978, 0.3507,-0.0148, 0.5655,-0.6448
09-Sep-2020 11:19:02.729, 0.0786,-0.5858,-0.7778,-0.0650, 0.2050, 0.3454,-0.0151, 0.5653,-0.6405
09-Sep-2020 11:19:02.739, 0.0778,-0.5838,-0.7903,-0.1198, 0.1754, 0.3442,-0.0153, 0.5646,-0.6364
09-Sep-2020 11:19:02.749, 0.0637,-0.5804,-0.8018,-0.1568, 0.1316, 0.3420,-0.0158, 0.5634,-0.6323
09-Sep-2020 11:19:02.759, 0.0475,-0.5745,-0.8034,-0.1915, 0.1224, 0.3429,-0.0166, 0.5618,-0.6282
09-Sep-2020 11:19:02.769, 0.0291,-0.5675,-0.8002,-0.2245, 0.1472, 0.3377,-0.0175, 0.5599,-0.6242
09-Sep-2020 11:19:02.779, 0.0180,-0.5616,-0.8064,-0.2607, 0.1764, 0.3135,-0.0182, 0.5576,-0.6202
09-Sep-2020 11:19:02.789, 0.0099,-0.5565,-0.8197,-0.2824, 0.1754, 0.2904,-0.0184, 0.5550,-0.6165
09-Sep-2020 11:19:02.799,-0.0038,-0.5492,-0.8334,-0.2833, 0.1713, 0.2617,-0.0185, 0.5522,-0.6131
09-Sep-2020 11:19:02.808,-0.0130,-0.5446,-0.8488,-0.2540, 0.1603, 0.2309,-0.0184, 0.5494,-0.6100
09-Sep-2020 11:19:02.818,-0.0160,-0.5416,-0.8490,-0.2109, 0.1443, 0.2048,-0.0182, 0.5469,-0.6073
09-Sep-2020 11:19:02.829,-0.0159,-0.5434,-0.8378,-0.1608, 0.1049, 0.1919,-0.0181, 0.5448,-0.6048
09-Sep-2020 11:19:02.839,-0.0189,-0.5496,-0.8187,-0.1135, 0.0514, 0.1897,-0.0182, 0.5432,-0.6026
09-Sep-2020 11:19:02.848,-0.0240,-0.5585,-0.7895,-0.0819, 0.0367, 0.1869,-0.0188, 0.5421,-0.6003
09-Sep-2020 11:19:02.858,-0.0123,-0.5735,-0.7569,-0.0739, 0.0534, 0.2052,-0.0196, 0.5413,-0.5981
09-Sep-2020 11:19:02.869,-0.0081,-0.5887,-0.7287,-0.0820, 0.0856, 0.2240,-0.0203, 0.5405,-0.5956
09-Sep-2020 11:19:02.878,-0.0021,-0.5975,-0.7070,-0.0913, 0.1343, 0.2289,-0.0208, 0.5397,-0.5930
09-Sep-2020 11:19:02.889, 0.0105,-0.6108,-0.6935,-0.1153, 0.1523, 0.2252,-0.0209, 0.5388,-0.5902
09-Sep-2020 11:19:02.898, 0.0238,-0.6203,-0.6762,-0.1486, 0.1757, 0.2261,-0.0208, 0.5376,-0.5876
09-Sep-2020 11:19:02.908, 0.0292,-0.6174,-0.6685,-0.1963, 0.1798, 0.2119,-0.0204, 0.5361,-0.5849
09-Sep-2020 11:19:02.918, 0.0405,-0.6145,-0.6756,-0.2645, 0.1824, 0.1963,-0.0199, 0.5341,-0.5824
09-Sep-2020 11:19:02.928, 0.0573,-0.6091,-0.6980,-0.3228, 0.1881, 0.1922,-0.0193, 0.5315,-0.5801
09-Sep-2020 11:19:02.938, 0.0766,-0.6017,-0.7299,-0.3642, 0.1700, 0.1988,-0.0186, 0.5283,-0.5779
09-Sep-2020 11:19:02.948, 0.0997,-0.5867,-0.7539,-0.3827, 0.1264, 0.2148,-0.0181, 0.5247,-0.5756
09-Sep-2020 11:19:02.958, 0.1145,-0.5770,-0.7801,-0.3767, 0.0765, 0.2361,-0.0181, 0.5209,-0.5731
09-Sep-2020 11:19:02.968, 0.1246,-0.5772,-0.7971,-0.3529, 0.0357, 0.2533,-0.0186, 0.5172,-0.5704
09-Sep-2020 11:19:02.978, 0.1282,-0.5808,-0.8055,-0.3295,-0.0080, 0.2709,-0.0197, 0.5136,-0.5675
09-Sep-2020 11:19:02.988, 0.1202,-0.5806,-0.8042,-0.3109,-0.0359, 0.2800,-0.0213, 0.5103,-0.5644
09-Sep-2020 11:19:02.998, 0.1215,-0.5768,-0.8056,-0.3098,-0.0855, 0.2892,-0.0233, 0.5072,-0.5612
09-Sep-2020 11:19:03.008, 0.1223,-0.5523,-0.8046,-0.3276,-0.1141, 0.3101,-0.0257, 0.5041,-0.5579
09-Sep-2020 11:19:03.018, 0.1302,-0.5372,-0.8147,-0.3785,-0.1160, 0.3323,-0.0285, 0.5007,-0.5544
09-Sep-2020 11:19:03.028, 0.1427,-0.5725,-0.8711,-0.3979,-0.2189, 0.4434,-0.0317, 0.4969,-0.5506
09-Sep-2020 11:19:03.038, 0.1421,-0.5341,-0.8892,-0.3923,-0.2734, 0.5228,-0.0361, 0.4928,-0.5457
09-Sep-2020 11:19:03.047, 0.1060,-0.5230,-0.9035,-0.3462,-0.2800, 0.5385,-0.0415, 0.4888,-0.5399
09-Sep-2020 11:19:03.058, 0.0571,-0.5462,-0.9317,-0.3026,-0.2770, 0.5548,-0.0471, 0.4852,-0.5339
09-Sep-2020 11:19:03.068,-0.0221,-0.5424,-0.9251,-0.2577,-0.2197, 0.5019,-0.0526, 0.4819,-0.5278
09-Sep-2020 11:19:03.078,-0.1205,-0.5671,-0.8926,-0.2329,-0.3862, 0.3284,-0.0576, 0.4791,-0.5224
09-Sep-2020 11:19:03.087,-0.0993,-0.5887,-0.8651,-0.2285,-0.5067, 0.1762,-0.0630, 0.4766,-0.5187
09-Sep-2020 11:19:03.097,-0.0546,-0.5472,-0.8669,-0.2138,-0.4891, 0.1017,-0.0688, 0.4743,-0.5168
09-Sep-2020 11:19:03.107,-0.0126,-0.5315,-0.8462,-0.1666,-0.4450, 0.1036,-0.0742, 0.4721,-0.5157
09-Sep-2020 11:19:03.117, 0.0268,-0.5390,-0.8408,-0.0987,-0.5393, 0.1676,-0.0793, 0.4704,-0.5146
09-Sep-2020 11:19:03.127, 0.0475,-0.5535,-0.8237,-0.0374,-0.7584, 0.2672,-0.0856, 0.4693,-0.5127
09-Sep-2020 11:19:03.137, 0.0300,-0.5595,-0.8233, 0.0027,-0.9577, 0.3340,-0.0945, 0.4687,-0.5097
09-Sep-2020 11:19:03.147, 0.0013,-0.5670,-0.8512, 0.0342,-1.1582, 0.3513,-0.1057, 0.4685,-0.5059
09-Sep-2020 11:19:03.157,-0.0131,-0.5728,-0.8696, 0.0698,-1.4829, 0.3113,-0.1192, 0.4685,-0.5019
09-Sep-2020 11:19:03.167,-0.0585,-0.5717,-0.8968, 0.1082,-1.7285, 0.2096,-0.1356, 0.4688,-0.4984
09-Sep-2020 11:19:03.177,-0.1082,-0.5524,-0.9280, 0.1143,-1.6907, 0.0647,-0.1538, 0.4696,-0.4958
09-Sep-2020 11:19:03.187,-0.1199,-0.5142,-0.9445, 0.0962,-1.1881,-0.0325,-0.1707, 0.4706,-0.4948
09-Sep-2020 11:19:03.197,-0.1053,-0.4682,-0.9590, 0.0513,-0.6207,-0.0569,-0.1825, 0.4716,-0.4948
09-Sep-2020 11:19:03.207,-0.1073,-0.4862,-0.9255, 0.0120,-0.4793,-0.0411,-0.1889, 0.4722,-0.4952
09-Sep-2020 11:19:03.217,-0.1017,-0.5206,-0.9138, 0.0474,-0.5430, 0.0314,-0.1936, 0.4725,-0.4955
09-Sep-2020 11:19:03.227,-0.1357,-0.4956,-0.9593, 0.1313,-0.6037, 0.1171,-0.1993, 0.4729,-0.4949
09-Sep-2020 11:19:03.237,-0.1571,-0.5026,-0.9781, 0.2189,-0.6568, 0.1645,-0.2061, 0.4740,-0.4933
09-Sep-2020 11:19:03.247,-0.1963,-0.5076,-0.9828, 0.2831,-0.7403, 0.1389,-0.2137, 0.4758,-0.4909
09-Sep-2020 11:19:03.257,-0.2559,-0.5051,-0.9643, 0.3094,-0.7993, 0.0574,-0.2221, 0.4783,-0.4887
09-Sep-2020 11:19:03.267,-0.2723,-0.5157,-0.9521, 0.2828,-0.8817, 0.0189,-0.2308, 0.4811,-0.4872
09-Sep-2020 11:19:03.277,-0.2663,-0.4984,-0.9312, 0.2027,-0.9326, 0.0576,-0.2401, 0.4838,-0.4861
09-Sep-2020 11:19:03.286,-0.2997,-0.4581,-0.9238, 0.1122,-0.8447, 0.1036,-0.2499, 0.4856,-0.4848
09-Sep-2020 11:19:03.296,-0.3491,-0.4218,-0.9251, 0.0433,-0.5592, 0.0935,-0.2589, 0.4865,-0.4834
09-Sep-2020 11:19:03.306,-0.3900,-0.4004,-0.9428,-0.0163,-0.2718, 0.0175,-0.2651, 0.4867,-0.4822
09-Sep-2020 11:19:03.316,-0.4198,-0.4108,-0.9546,-0.0556, 0.0307,-0.0698,-0.2678, 0.4865,-0.4820
09-Sep-2020 11:19:03.326,-0.4367,-0.4379,-0.9388,-0.1222, 0.3187,-0.1274,-0.2672, 0.4862,-0.4828
09-Sep-2020 11:19:03.336,-0.4265,-0.4659,-0.9258,-0.2105, 0.4983,-0.1460,-0.2633, 0.4853,-0.4844
09-Sep-2020 11:19:03.346,-0.4004,-0.4624,-0.9118,-0.2859, 0.5619,-0.1468,-0.2574, 0.4837,-0.4865
09-Sep-2020 11:19:03.356,-0.3662,-0.4515,-0.9078,-0.3520, 0.5649,-0.1501,-0.2508, 0.4813,-0.4888
09-Sep-2020 11:19:03.366,-0.3275,-0.4574,-0.9149,-0.3772, 0.5671,-0.1488,-0.2441, 0.4784,-0.4913
09-Sep-2020 11:19:03.376,-0.2970,-0.4635,-0.9346,-0.3416, 0.5510,-0.1246,-0.2373, 0.4751,-0.4938
09-Sep-2020 11:19:03.386,-0.2706,-0.4604,-0.9436,-0.2657, 0.4860,-0.0975,-0.2309, 0.4721,-0.4960
09-Sep-2020 11:19:03.396,-0.2534,-0.4511,-0.9398,-0.1932, 0.3950,-0.0626,-0.2253, 0.4698,-0.4976
09-Sep-2020 11:19:03.406,-0.2508,-0.4314,-0.9305,-0.1221, 0.2787,-0.0412,-0.2210, 0.4681,-0.4987
09-Sep-2020 11:19:03.416,-0.3106,-0.3377,-0.9353,-0.0098, 0.1326,-0.1188,-0.2179, 0.4670,-0.4994
09-Sep-2020 11:19:03.426,-0.3080,-0.3049,-0.9091, 0.1433, 0.0171,-0.3093,-0.2160, 0.4673,-0.5007
09-Sep-2020 11:19:03.436,-0.2384,-0.3653,-0.8528, 0.2539,-0.1227,-0.4894,-0.2145, 0.4693,-0.5036
09-Sep-2020 11:19:03.446,-0.2434,-0.3491,-0.8181, 0.3143,-0.3829,-0.7063,-0.2137, 0.4728,-0.5083
09-Sep-2020 11:19:03.456,-0.2673,-0.2674,-0.7701, 0.3889,-0.6098,-0.9235,-0.2143, 0.4774,-0.5152
09-Sep-2020 11:19:03.466,-0.2979,-0.1992,-0.7357, 0.5436,-0.6928,-1.1399,-0.2161, 0.4832,-0.5243
09-Sep-2020 11:19:03.476,-0.3550,-0.1740,-0.7178, 0.7580,-0.6384,-1.4002,-0.2177, 0.4910,-0.5354
09-Sep-2020 11:19:03.486,-0.3872,-0.1677,-0.7263, 0.9691,-0.6168,-1.6934,-0.2177, 0.5014,-0.5490
09-Sep-2020 11:19:03.495,-0.3573,-0.1557,-0.7041, 1.1048,-0.6538,-1.9595,-0.2159, 0.5144,-0.5653
09-Sep-2020 11:19:03.505,-0.3184,-0.1236,-0.5928, 1.0268,-0.5394,-2.1870,-0.2128, 0.5292,-0.5845
09-Sep-2020 11:19:03.515,-0.3132,-0.1197,-0.4998, 0.7240,-0.2964,-2.4607,-0.2066, 0.5436,-0.6068
09-Sep-2020 11:19:03.526,-0.2361,-0.2187,-0.4662, 0.3452,-0.1639,-2.7008,-0.1959, 0.5555,-0.6332
09-Sep-2020 11:19:03.536,-0.0206,-0.4014,-0.4446, 0.0167,-0.0982,-2.7526,-0.1816, 0.5640,-0.6634
09-Sep-2020 11:19:03.545, 0.2930,-0.6611,-0.4835,-0.2930, 0.1150,-2.3952,-0.1655, 0.5689,-0.6949
09-Sep-2020 11:19:03.555, 0.4829,-0.9108,-0.6580,-0.5089, 0.1721,-1.5956,-0.1493, 0.5697,-0.7229
09-Sep-2020 11:19:03.565, 0.3466,-0.9650,-0.7997,-0.5849,-0.0807,-0.7003,-0.1374, 0.5671,-0.7422
09-Sep-2020 11:19:03.575, 0.0969,-0.8839,-0.8397,-0.5353,-0.3315, 0.0406,-0.1334, 0.5624,-0.7513
09-Sep-2020 11:19:03.585,-0.0678,-0.7878,-0.8256,-0.4285,-0.3929, 0.5222,-0.1363, 0.5572,-0.7518
09-Sep-2020 11:19:03.595,-0.1772,-0.7226,-0.7184,-0.5942,-0.1051, 0.7834,-0.1428, 0.5521,-0.7465
09-Sep-2020 11:19:03.605,-0.2146,-0.6540,-0.6864,-0.9387,-0.0388, 0.9227,-0.1482, 0.5450,-0.7385
09-Sep-2020 11:19:03.615,-0.1678,-0.5672,-0.7138,-1.0876,-0.3687, 1.0925,-0.1536, 0.5346,-0.7294
09-Sep-2020 11:19:03.625,-0.0844,-0.4830,-0.7536,-0.9958,-0.6112, 1.2854,-0.1625, 0.5223,-0.7188
09-Sep-2020 11:19:03.635,-0.1131,-0.4168,-0.7918,-0.8420,-0.5820, 1.3661,-0.1747, 0.5105,-0.7062
09-Sep-2020 11:19:03.644,-0.2081,-0.4214,-0.8037,-0.7481,-0.3809, 1.2827,-0.1869, 0.4998,-0.6927
09-Sep-2020 11:19:03.655,-0.2623,-0.5085,-0.8040,-0.7781,-0.2857, 1.0758,-0.1967, 0.4900,-0.6801
09-Sep-2020 11:19:03.665,-0.3335,-0.5453,-0.7833,-0.9887,-0.2796, 0.7950,-0.2044, 0.4802,-0.6699
09-Sep-2020 11:19:03.674,-0.4204,-0.4986,-0.8721,-1.1103,-0.0314, 0.4666,-0.2101, 0.4690,-0.6634
09-Sep-2020 11:19:03.685,-0.3671,-0.4507,-0.9766,-1.0283, 0.2938, 0.1905,-0.2115, 0.4574,-0.6608
09-Sep-2020 11:19:03.694,-0.3207,-0.3956,-1.0263,-0.7726, 0.6768,-0.0292,-0.2085, 0.4471,-0.6610
09-Sep-2020 11:19:03.704,-0.3280,-0.3811,-1.0367,-0.2322, 1.3434,-0.1478,-0.2007, 0.4398,-0.6628
09-Sep-2020 11:19:03.714,-0.3996,-0.4323,-1.1257, 0.4188, 1.9817,-0.1054,-0.1866, 0.4379,-0.6647
09-Sep-2020 11:19:03.724,-0.4042,-0.4639,-1.2061, 0.8328, 2.2508,-0.1107,-0.1669, 0.4421,-0.6650
09-Sep-2020 11:19:03.735,-0.3279,-0.5168,-1.2003, 0.9092, 1.8687,-0.2226,-0.1450, 0.4503,-0.6649
09-Sep-2020 11:19:03.744,-0.2657,-0.6057,-1.0526, 0.8459, 1.4637,-0.2737,-0.1260, 0.4595,-0.6658
09-Sep-2020 11:19:03.754,-0.3165,-0.6042,-1.0049, 0.7869, 1.3986,-0.3611,-0.1104, 0.4682,-0.6677
09-Sep-2020 11:19:03.764,-0.3784,-0.5171,-1.0405, 0.6873, 1.2710,-0.4137,-0.0952, 0.4763,-0.6707
09-Sep-2020 11:19:03.774,-0.3841,-0.4561,-0.9888, 0.4018, 0.9960,-0.4314,-0.0809, 0.4834,-0.6745
09-Sep-2020 11:19:03.785,-0.3067,-0.5030,-0.9870, 0.0003, 0.7422,-0.4479,-0.0689, 0.4876,-0.6789
09-Sep-2020 11:19:03.794,-0.2504,-0.4957,-1.0952,-0.3579, 0.3416,-0.5487,-0.0593, 0.4880,-0.6839
09-Sep-2020 11:19:03.804,-0.2466,-0.4516,-1.1293,-0.5234, 0.2352,-0.7435,-0.0527, 0.4849,-0.6903
09-Sep-2020 11:19:03.814,-0.2227,-0.4176,-1.1541,-0.4646, 0.3153,-0.9906,-0.0463, 0.4802,-0.6989
09-Sep-2020 11:19:03.824,-0.2331,-0.3505,-1.1663,-0.2928, 0.4212,-1.2867,-0.0379, 0.4762,-0.7102
09-Sep-2020 11:19:03.834,-0.1675,-0.4073,-1.1697,-0.0805, 0.3786,-1.4447,-0.0273, 0.4738,-0.7245
09-Sep-2020 11:19:03.844,-0.1629,-0.3656,-1.0810,-0.0673, 0.3308,-1.5048,-0.0163, 0.4732,-0.7405
09-Sep-2020 11:19:03.857,-0.1925,-0.3356,-1.0921,-0.1403, 0.0598,-1.7136,-0.0055, 0.4726,-0.7573
09-Sep-2020 11:19:03.864,-0.2188,-0.4035,-1.0325,-0.2871, 0.0867,-1.9664, 0.0041, 0.4712,-0.7764
09-Sep-2020 11:19:03.873,-0.2331,-0.3988,-1.0851,-0.3570, 0.0854,-2.2200, 0.0147, 0.4683,-0.7982
09-Sep-2020 11:19:03.883,-0.2611,-0.3701,-1.1837,-0.2912,-0.0686,-2.5063, 0.0266, 0.4644,-0.8228
09-Sep-2020 11:19:03.893,-0.3147,-0.3547,-1.2025,-0.1201,-0.2551,-2.7847, 0.0382, 0.4608,-0.8505
09-Sep-2020 11:19:03.903,-0.3747,-0.2782,-1.1380, 0.0773,-0.1729,-3.0875, 0.0495, 0.4584,-0.8813
09-Sep-2020 11:19:03.914,-0.3956,-0.1820,-1.2086, 0.4271, 0.0584,-3.3418, 0.0630, 0.4576,-0.9154
09-Sep-2020 11:19:03.923,-0.3520,-0.2326,-1.4979, 0.9997,-0.4374,-3.3704, 0.0796, 0.4597,-0.9526
09-Sep-2020 11:19:03.933,-0.2562,-0.1948,-1.3173, 1.3397,-1.0320,-3.3484, 0.0919, 0.4665,-0.9907
09-Sep-2020 11:19:03.943,-0.1718,-0.2206,-0.9290, 1.2965,-0.6102,-3.4646, 0.0997, 0.4765,-1.0294
09-Sep-2020 11:19:03.953,-0.1035,-0.2934,-0.9236, 0.6959,-0.6609,-2.9327, 0.1115, 0.4854,-1.0688
09-Sep-2020 11:19:03.963,-0.0859,-0.3580,-0.8139, 0.2579,-0.9042,-2.7257, 0.1210, 0.4891,-1.1030
09-Sep-2020 11:19:03.973,-0.2227,-0.3765,-0.7797,-0.0053,-0.4453,-2.5482, 0.1270, 0.4884,-1.1337
09-Sep-2020 11:19:03.983,-0.2377,-0.3685,-0.9840, 0.0300,-0.1145,-2.5042, 0.1357, 0.4853,-1.1622
09-Sep-2020 11:19:03.993,-0.2248,-0.3059,-1.0889, 0.2350, 0.1117,-2.5393, 0.1475, 0.4822,-1.1902
09-Sep-2020 11:19:04.003,-0.1929,-0.3376,-1.0497, 0.4086, 0.2722,-2.5819, 0.1619, 0.4806,-1.2187
09-Sep-2020 11:19:04.013,-0.1489,-0.4273,-1.0215, 0.4703,-0.0138,-2.5226, 0.1777, 0.4803,-1.2479
09-Sep-2020 11:19:04.023,-0.2448,-0.3804,-0.8978, 0.4173,-0.3827,-2.4371, 0.1908, 0.4803,-1.2765
09-Sep-2020 11:19:04.033,-0.3739,-0.1977,-0.7716, 0.3754,-0.2443,-2.5036, 0.2002, 0.4797,-1.3043
09-Sep-2020 11:19:04.043,-0.3830,-0.0963,-0.8129, 0.4184,-0.0283,-2.7918, 0.2109, 0.4783,-1.3328
09-Sep-2020 11:19:04.052,-0.3891,-0.0526,-0.8457, 0.5757,-0.0305,-3.3733, 0.2249, 0.4765,-1.3644
09-Sep-2020 11:19:04.063,-0.3179,-0.0271,-0.6923, 0.7860, 0.4654,-4.4926, 0.2430, 0.4742,-1.4032
09-Sep-2020 11:19:04.072,-0.0804,-0.2728,-0.7682, 1.0496, 0.7272,-5.0237, 0.2704, 0.4707,-1.4535
09-Sep-2020 11:19:04.082, 0.0622,-0.3852,-0.8672, 1.1742, 0.6643,-5.1076, 0.3031, 0.4666,-1.5102
09-Sep-2020 11:19:04.092, 0.1467,-0.4136,-0.9602, 1.1962,-0.0214,-4.9759, 0.3351, 0.4618,-1.5681
09-Sep-2020 11:19:04.103, 0.2044,-0.3833,-0.7754, 1.0206,-0.5919,-4.6911, 0.3599, 0.4560,-1.6243
09-Sep-2020 11:19:04.112, 0.2779,-0.4233,-0.6981, 0.5674,-0.8929,-3.7936, 0.3768, 0.4487,-1.6763
09-Sep-2020 11:19:04.122, 0.2927,-0.4093,-0.8067, 0.1677,-1.6442,-2.6055, 0.3849, 0.4402,-1.7175
09-Sep-2020 11:19:04.132, 0.1758,-0.4532,-0.8250,-0.2112,-2.4190,-1.5517, 0.3800, 0.4321,-1.7447
09-Sep-2020 11:19:04.142, 0.0171,-0.4072,-0.8145,-0.6993,-3.3642,-1.1651, 0.3622, 0.4244,-1.7601
09-Sep-2020 11:19:04.152,-0.2789,-0.2780,-0.9904,-0.8836,-3.5498,-1.5895, 0.3331, 0.4138,-1.7699
09-Sep-2020 11:19:04.162,-0.3557,-0.2172,-0.9383,-1.0036,-3.5198,-2.3464, 0.3029, 0.4004,-1.7833
09-Sep-2020 11:19:04.172,-0.2736,-0.2575,-0.8792,-1.1356,-3.1991,-2.8110, 0.2762, 0.3844,-1.8043
09-Sep-2020 11:19:04.182,-0.2208,-0.3501,-0.8547,-1.3717,-2.7224,-2.9632, 0.2540, 0.3662,-1.8299
09-Sep-2020 11:19:04.192,-0.2409,-0.3531,-0.8641,-1.6327,-2.3138,-2.9888, 0.2361, 0.3459,-1.8567
09-Sep-2020 11:19:04.202,-0.2708,-0.2672,-0.8768,-1.9016,-1.8727,-2.9378, 0.2219, 0.3234,-1.8834
09-Sep-2020 11:19:04.212,-0.2525,-0.1690,-0.9200,-2.0355,-1.6138,-2.9390, 0.2110, 0.2987,-1.9091
09-Sep-2020 11:19:04.222,-0.2023,-0.1196,-0.9671,-1.8999,-1.3979,-2.9553, 0.2021, 0.2731,-1.9346
09-Sep-2020 11:19:04.232,-0.1561,-0.1045,-1.0194,-1.5579,-1.2210,-2.9221, 0.1948, 0.2490,-1.9605
09-Sep-2020 11:19:04.242,-0.1472,-0.1150,-1.0433,-1.1997,-1.2022,-2.8840, 0.1887, 0.2283,-1.9868
09-Sep-2020 11:19:04.252,-0.1453,-0.1346,-1.0074,-0.9718,-1.2166,-2.8857, 0.1826, 0.2112,-2.0134
09-Sep-2020 11:19:04.262,-0.1392,-0.1703,-0.9938,-0.9504,-1.3090,-2.8712, 0.1758, 0.1965,-2.0404
09-Sep-2020 11:19:04.272,-0.1171,-0.1646,-1.0215,-0.9633,-1.5067,-2.8276, 0.1678, 0.1823,-2.0673
09-Sep-2020 11:19:04.282,-0.0461,-0.1090,-1.0298,-0.9043,-1.6532,-2.8173, 0.1575, 0.1684,-2.0939
09-Sep-2020 11:19:04.292, 0.0124,-0.0277,-1.0019,-0.7130,-1.5485,-2.8228, 0.1455, 0.1554,-2.1205
09-Sep-2020 11:19:04.302,-0.0181,-0.0512,-0.9828,-0.4947,-1.3844,-2.8046, 0.1341, 0.1445,-2.1476
09-Sep-2020 11:19:04.311,-0.1343,-0.1779,-1.0331,-0.4374,-1.3911,-2.7916, 0.1239, 0.1360,-2.1748
09-Sep-2020 11:19:04.321,-0.1959,-0.2225,-1.1393,-0.4587,-1.3158,-2.8175, 0.1137, 0.1283,-2.2021
09-Sep-2020 11:19:04.331,-0.1946,-0.1660,-1.2667,-0.2160,-1.2792,-2.9125, 0.1040, 0.1210,-2.2297
09-Sep-2020 11:19:04.341,-0.2071,-0.1011,-1.2274, 0.1586,-1.1544,-2.9891, 0.0948, 0.1161,-2.2584
09-Sep-2020 11:19:04.352,-0.2098,-0.0474,-1.1586, 0.5239,-1.1320,-3.0427, 0.0866, 0.1150,-2.2883
09-Sep-2020 11:19:04.361,-0.2492,-0.0323,-1.0545, 0.7034,-1.1469,-3.0474, 0.0789, 0.1176,-2.3190
09-Sep-2020 11:19:04.371,-0.2666,-0.0825,-1.0158, 0.6931,-1.2346,-3.0447, 0.0711, 0.1223,-2.3499
09-Sep-2020 11:19:04.381,-0.2279,-0.1465,-1.0051, 0.5839,-1.2976,-3.0354, 0.0627, 0.1271,-2.3807
09-Sep-2020 11:19:04.391,-0.1985,-0.1291,-0.9798, 0.4635,-1.2461,-3.0121, 0.0538, 0.1312,-2.4114
09-Sep-2020 11:19:04.401,-0.1783,-0.1218,-0.8941, 0.2038,-1.2369,-2.9764, 0.0455, 0.1343,-2.4418
09-Sep-2020 11:19:04.411,-0.1969,-0.1145,-0.9055,-0.0113,-1.1213,-2.9196, 0.0373, 0.1352,-2.4717
09-Sep-2020 11:19:04.421,-0.1910,-0.1133,-0.9162,-0.0311,-1.0044,-2.8201, 0.0301, 0.1343,-2.5008
09-Sep-2020 11:19:04.431,-0.2214,-0.0894,-0.8493,-0.0391,-0.9569,-2.8002, 0.0238, 0.1332,-2.5291
09-Sep-2020 11:19:04.441,-0.2365,-0.0849,-0.8141,-0.0267,-0.8473,-2.7640, 0.0180, 0.1323,-2.5572
09-Sep-2020 11:19:04.451,-0.2202,-0.0974,-0.8196, 0.0119,-0.6187,-2.6823, 0.0133, 0.1317,-2.5848
09-Sep-2020 11:19:04.461,-0.1970,-0.0803,-0.8368, 0.0707,-0.4286,-2.6008, 0.0107, 0.1315,-2.6116
09-Sep-2020 11:19:04.471,-0.1843,-0.0544,-0.8609, 0.1351,-0.3562,-2.5242, 0.0097, 0.1320,-2.6377
09-Sep-2020 11:19:04.481,-0.1873,-0.0718,-0.8964, 0.0956,-0.3875,-2.4694, 0.0094, 0.1331,-2.6630
09-Sep-2020 11:19:04.490,-0.2127,-0.1552,-0.9566,-0.1149,-0.3974,-2.5171, 0.0089, 0.1337,-2.6878
09-Sep-2020 11:19:04.500,-0.2326,-0.2205,-1.0468,-0.3751,-0.4052,-2.6966, 0.0083, 0.1324,-2.7131
09-Sep-2020 11:19:04.511,-0.2415,-0.2367,-1.0729,-0.5924,-0.3410,-2.9547, 0.0078, 0.1285,-2.7401
09-Sep-2020 11:19:04.520,-0.2204,-0.2108,-1.0882,-0.6623,-0.3572,-3.1161, 0.0080, 0.1225,-2.7695
09-Sep-2020 11:19:04.530,-0.1828,-0.1502,-1.0362,-0.6368,-0.4993,-3.0491, 0.0080, 0.1158,-2.8005
09-Sep-2020 11:19:04.540,-0.1502,-0.0767,-0.9879,-0.5560,-0.6421,-2.8594, 0.0065, 0.1093,-2.8308
09-Sep-2020 11:19:04.550,-0.1275,-0.0556,-0.9605,-0.4585,-0.7536,-2.6743, 0.0031, 0.1036,-2.8594
09-Sep-2020 11:19:04.560,-0.1269,-0.0849,-0.8915,-0.5267,-0.6288,-2.5732,-0.0015, 0.0990,-2.8861
09-Sep-2020 11:19:04.570,-0.1434,-0.1102,-0.8781,-0.7205,-0.4422,-2.5669,-0.0053, 0.0938,-2.9118
09-Sep-2020 11:19:04.580,-0.1553,-0.1008,-0.9184,-0.9237,-0.2360,-2.5871,-0.0074, 0.0868,-2.9375
09-Sep-2020 11:19:04.590,-0.1409,-0.0753,-0.9768,-1.1259,-0.0597,-2.6083,-0.0076, 0.0779,-2.9633
09-Sep-2020 11:19:04.600,-0.1272,-0.0250,-1.0269,-1.3183, 0.0060,-2.6703,-0.0064, 0.0669,-2.9894
09-Sep-2020 11:19:04.610,-0.1072, 0.0140,-1.0755,-1.4201,-0.0486,-2.7323,-0.0048, 0.0540,-3.0160
09-Sep-2020 11:19:04.620,-0.0630, 0.0184,-1.1232,-1.4548,-0.3653,-2.7664,-0.0042, 0.0401,-3.0432
09-Sep-2020 11:19:04.630,-0.0291, 0.0321,-1.1431,-1.4175,-0.8285,-2.7880,-0.0070, 0.0258,-3.0707
09-Sep-2020 11:19:04.640,-0.0165, 0.0585,-1.0925,-1.3194,-1.1447,-2.7734,-0.0146, 0.0121,-3.0985
09-Sep-2020 11:19:04.650,-0.0172, 0.0746,-1.0008,-1.2824,-1.3175,-2.7169,-0.0258,-0.0005,-3.1263
09-Sep-2020 11:19:04.660,-0.0227, 0.0738,-0.9472,-1.2981,-1.3679,-2.6505,-0.0390,-0.0124, 3.1295
09-Sep-2020 11:19:04.670, 0.0048, 0.0762,-0.9539,-1.3563,-1.3217,-2.5737,-0.0531,-0.0241, 3.1026
09-Sep-2020 11:19:04.679, 0.0322, 0.1278,-0.9874,-1.3946,-1.1721,-2.5062,-0.0670,-0.0360, 3.0763
09-Sep-2020 11:19:04.689, 0.0517, 0.1560,-1.0332,-1.3729,-0.9253,-2.4076,-0.0797,-0.0479, 3.0505
09-Sep-2020 11:19:04.699, 0.0856, 0.1874,-1.0826,-1.3600,-0.8058,-2.2418,-0.0903,-0.0595, 3.0255
09-Sep-2020 11:19:04.709, 0.1163, 0.2343,-1.1099,-1.3563,-0.8000,-1.9915,-0.0999,-0.0708, 3.0021
09-Sep-2020 11:19:04.720, 0.1384, 0.2791,-1.0807,-1.3891,-0.7914,-1.7128,-0.1095,-0.0822, 2.9810
09-Sep-2020 11:19:04.729, 0.1226, 0.3345,-1.0048,-1.5161,-0.7132,-1.5130,-0.1190,-0.0940, 2.9625
09-Sep-2020 11:19:04.739, 0.1015, 0.3637,-0.9707,-1.5792,-0.3226,-1.4120,-0.1276,-0.1071, 2.9456
09-Sep-2020 11:19:04.749, 0.1268, 0.3368,-1.0019,-1.5113, 0.2332,-1.2890,-0.1325,-0.1207, 2.9296
09-Sep-2020 11:19:04.759, 0.1510, 0.3298,-1.0731,-1.3174, 0.6682,-1.1193,-0.1321,-0.1338, 2.9149
09-Sep-2020 11:19:04.770, 0.1535, 0.3442,-1.1396,-1.0472, 0.8732,-0.9006,-0.1274,-0.1453, 2.9021
09-Sep-2020 11:19:04.779, 0.1323, 0.3617,-1.1748,-0.7953, 0.8193,-0.6739,-0.1204,-0.1545, 2.8919
09-Sep-2020 11:19:04.789, 0.0887, 0.4165,-1.1656,-0.6215, 0.6701,-0.4497,-0.1135,-0.1616, 2.8843
09-Sep-2020 11:19:04.799, 0.0213, 0.4866,-1.1366,-0.5440, 0.5059,-0.2846,-0.1077,-0.1673, 2.8791
09-Sep-2020 11:19:04.809,-0.0476, 0.5491,-1.0952,-0.5269, 0.4065,-0.2081,-0.1032,-0.1724, 2.8757
09-Sep-2020 11:19:04.819,-0.1119, 0.6183,-1.0475,-0.5331, 0.3736,-0.2691,-0.0996,-0.1774, 2.8731
09-Sep-2020 11:19:04.829,-0.1273, 0.6095,-0.9826,-0.5235, 0.4500,-0.3529,-0.0964,-0.1823, 2.8699
09-Sep-2020 11:19:04.839,-0.1023, 0.5709,-0.9382,-0.5596, 0.4564,-0.4045,-0.0927,-0.1872, 2.8659
09-Sep-2020 11:19:04.849,-0.0873, 0.5521,-0.8984,-0.6588, 0.4129,-0.4348,-0.0891,-0.1924, 2.8614
09-Sep-2020 11:19:04.859,-0.0871, 0.5365,-0.8709,-0.7770, 0.3789,-0.4673,-0.0859,-0.1985, 2.8565
09-Sep-2020 11:19:04.869,-0.0881, 0.5237,-0.8582,-0.8754, 0.4077,-0.5207,-0.0832,-0.2058, 2.8512
09-Sep-2020 11:19:04.879,-0.0730, 0.5099,-0.8769,-0.9391, 0.4634,-0.5858,-0.0803,-0.2140, 2.8452
09-Sep-2020 11:19:04.888,-0.0258, 0.4857,-0.9347,-0.9529, 0.4185,-0.6123,-0.0772,-0.2228, 2.8386
09-Sep-2020 11:19:04.898, 0.0370, 0.4746,-0.9938,-0.9256, 0.2189,-0.6161,-0.0747,-0.2317, 2.8318
09-Sep-2020 11:19:04.909, 0.0954, 0.4782,-1.0140,-0.8659,-0.0441,-0.5837,-0.0742,-0.2404, 2.8249
09-Sep-2020 11:19:04.918, 0.1353, 0.4709,-1.0004,-0.7456,-0.2363,-0.5217,-0.0762,-0.2485, 2.8183
09-Sep-2020 11:19:04.929, 0.1467, 0.4538,-0.9587,-0.5973,-0.3389,-0.4683,-0.0800,-0.2555, 2.8124
09-Sep-2020 11:19:04.939, 0.1518, 0.4018,-0.9006,-0.4901,-0.3156,-0.3965,-0.0847,-0.2610, 2.8072
09-Sep-2020 11:19:04.948, 0.1575, 0.3625,-0.8610,-0.4369,-0.2210,-0.2982,-0.0889,-0.2655, 2.8028
09-Sep-2020 11:19:04.958, 0.1480, 0.3673,-0.8467,-0.4096,-0.0860,-0.1914,-0.0920,-0.2696, 2.7994
09-Sep-2020 11:19:04.968, 0.1264, 0.3789,-0.8422,-0.3576, 0.0755,-0.0881,-0.0935,-0.2734, 2.7971
09-Sep-2020 11:19:04.980, 0.1102, 0.3844,-0.8493,-0.2817, 0.2083, 0.0110,-0.0930,-0.2768, 2.7960
09-Sep-2020 11:19:04.988, 0.1063, 0.3974,-0.8582,-0.2177, 0.2402, 0.1121,-0.0910,-0.2796, 2.7959
09-Sep-2020 11:19:04.998, 0.0979, 0.4055,-0.8529,-0.1998, 0.1898, 0.2094,-0.0884,-0.2819, 2.7969
09-Sep-2020 11:19:05.008, 0.0904, 0.4102,-0.8479,-0.2018, 0.0694, 0.2892,-0.0860,-0.2840, 2.7990
09-Sep-2020 11:19:05.018, 0.0763, 0.4107,-0.8333,-0.1962,-0.0726, 0.3503,-0.0845,-0.2862, 2.8019
09-Sep-2020 11:19:05.028, 0.0410, 0.3984,-0.7972,-0.2036,-0.1290, 0.3848,-0.0842,-0.2885, 2.8054
09-Sep-2020 11:19:05.038, 0.0015, 0.3761,-0.7775,-0.2591,-0.0633, 0.3664,-0.0844,-0.2908, 2.8092
09-Sep-2020 11:19:05.048,-0.0233, 0.3510,-0.7885,-0.3144, 0.0548, 0.3323,-0.0839,-0.2936, 2.8128
09-Sep-2020 11:19:05.058,-0.0297, 0.3391,-0.8281,-0.3291, 0.1509, 0.3090,-0.0825,-0.2970, 2.8161
09-Sep-2020 11:19:05.068,-0.0225, 0.3307,-0.8688,-0.3036, 0.1478, 0.3074,-0.0802,-0.3004, 2.8191
09-Sep-2020 11:19:05.078,-0.0227, 0.3257,-0.8791,-0.2561, 0.0955, 0.3270,-0.0778,-0.3037, 2.8222
09-Sep-2020 11:19:05.088,-0.0445, 0.3251,-0.8619,-0.2067, 0.0680, 0.3443,-0.0759,-0.3064, 2.8255
09-Sep-2020 11:19:05.097,-0.0704, 0.3330,-0.8445,-0.1821, 0.0944, 0.3422,-0.0741,-0.3087, 2.8289
09-Sep-2020 11:19:05.107,-0.0835, 0.3630,-0.8423,-0.1681, 0.1417, 0.3331,-0.0721,-0.3108, 2.8324
09-Sep-2020 11:19:05.117,-0.0884, 0.3913,-0.8518,-0.1395, 0.1784, 0.3377,-0.0697,-0.3126, 2.8359
09-Sep-2020 11:19:05.127,-0.0941, 0.4004,-0.8483,-0.0969, 0.1721, 0.3642,-0.0669,-0.3142, 2.8394
09-Sep-2020 11:19:05.137,-0.1301, 0.3955,-0.8121,-0.0844, 0.1990, 0.3778,-0.0640,-0.3154, 2.8432
09-Sep-2020 11:19:05.147,-0.1848, 0.3722,-0.7795,-0.1521, 0.3446, 0.3443,-0.0607,-0.3165, 2.8471
09-Sep-2020 11:19:05.157,-0.2243, 0.3508,-0.8161,-0.2520, 0.4816, 0.2526,-0.0562,-0.3182, 2.8507
09-Sep-2020 11:19:05.167,-0.2023, 0.3492,-0.9041,-0.2860, 0.4751, 0.1458,-0.0507,-0.3208, 2.8533
09-Sep-2020 11:19:05.177,-0.1455, 0.3187,-0.9813,-0.2420, 0.2922, 0.0770,-0.0456,-0.3236, 2.8547
09-Sep-2020 11:19:05.187,-0.1077, 0.2919,-1.0130,-0.1420, 0.0251, 0.0513,-0.0425,-0.3260, 2.8555
09-Sep-2020 11:19:05.197,-0.1081, 0.2962,-0.9931,-0.0439,-0.2196, 0.0158,-0.0421,-0.3274, 2.8561
09-Sep-2020 11:19:05.207,-0.1312, 0.3049,-0.9366, 0.0086,-0.3003,-0.0378,-0.0441,-0.3278, 2.8563
09-Sep-2020 11:19:05.217,-0.1544, 0.3198,-0.9093, 0.0043,-0.2388,-0.1129,-0.0471,-0.3277, 2.8560
09-Sep-2020 11:19:05.227,-0.1450, 0.3350,-0.9342, 0.0008,-0.2086,-0.1871,-0.0499,-0.3276, 2.8548
09-Sep-2020 11:19:05.237,-0.1132, 0.3599,-0.9715, 0.0417,-0.2546,-0.2111,-0.0527,-0.3274, 2.8530
09-Sep-2020 11:19:05.247,-0.0728, 0.4128,-0.9881, 0.1227,-0.3132,-0.1784,-0.0559,-0.3268, 2.8509
09-Sep-2020 11:19:05.257,-0.0119, 0.4598,-0.9799, 0.2222,-0.4083,-0.0870,-0.0596,-0.3254, 2.8492
09-Sep-2020 11:19:05.267, 0.0567, 0.4943,-0.9368, 0.2797,-0.5248, 0.0969,-0.0639,-0.3232, 2.8486
09-Sep-2020 11:19:05.277, 0.1201, 0.5373,-0.8645, 0.2835,-0.5572, 0.3629,-0.0686,-0.3205, 2.8500
09-Sep-2020 11:19:05.287, 0.1795, 0.5876,-0.8077, 0.2553,-0.5739, 0.6981,-0.0729,-0.3179, 2.8541
09-Sep-2020 11:19:05.297, 0.1960, 0.6071,-0.7464, 0.1591,-0.6373, 1.0639,-0.0763,-0.3159, 2.8617
09-Sep-2020 11:19:05.306, 0.1295, 0.5901,-0.6528,-0.0420,-0.5408, 1.3741,-0.0790,-0.3152, 2.8730
09-Sep-2020 11:19:05.316, 0.0142, 0.5842,-0.6006,-0.3138,-0.2113, 1.5215,-0.0798,-0.3167, 2.8872
09-Sep-2020 11:19:05.326,-0.0739, 0.5976,-0.6351,-0.5450, 0.2511, 1.4979,-0.0769,-0.3209, 2.9028
09-Sep-2020 11:19:05.336,-0.1042, 0.6004,-0.7313,-0.6096, 0.6435, 1.4312,-0.0696,-0.3272, 2.9182
09-Sep-2020 11:19:05.347,-0.1069, 0.5965,-0.8440,-0.5482, 0.7047, 1.3972,-0.0587,-0.3341, 2.9329
09-Sep-2020 11:19:05.356,-0.1255, 0.5714,-0.8900,-0.5046, 0.4376, 1.3754,-0.0471,-0.3403, 2.9474
09-Sep-2020 11:19:05.366,-0.1770, 0.5450,-0.8644,-0.5328, 0.1094, 1.3043,-0.0379,-0.3459, 2.9617
09-Sep-2020 11:19:05.376,-0.2357, 0.5543,-0.8308,-0.5998,-0.1221, 1.1174,-0.0322,-0.3516, 2.9753
09-Sep-2020 11:19:05.386,-0.2541, 0.5376,-0.8020,-0.6817,-0.1732, 0.8538,-0.0292,-0.3579, 2.9870
09-Sep-2020 11:19:05.396,-0.1919, 0.4729,-0.8201,-0.7664,-0.1288, 0.6578,-0.0277,-0.3649, 2.9960
09-Sep-2020 11:19:05.406,-0.4310, 0.5455,-1.0045,-0.7737, 0.0220, 0.4978,-0.0265,-0.3727, 3.0029
09-Sep-2020 11:19:05.416,-1.7803, 0.8816,-2.1607, 1.1512, 2.3416,-1.1621,-0.0222,-0.3786, 3.0065
09-Sep-2020 11:19:05.426,-0.3092, 0.2465,-2.1311, 1.5753,-0.0614,-1.1895,-0.0074,-0.3689, 2.9961
09-Sep-2020 11:19:05.436, 0.2268, 0.1263,-0.9902, 1.0624,-1.4360,-0.1795,-0.0105,-0.3536, 2.9843
09-Sep-2020 11:19:05.446, 0.0859, 0.4946,-0.8117, 0.6186,-1.8560, 0.2164,-0.0252,-0.3429, 2.9821
09-Sep-2020 11:19:05.456, 0.1315, 0.4158,-0.6618, 0.4790,-1.2027, 0.3005,-0.0421,-0.3366, 2.9846
09-Sep-2020 11:19:05.466, 0.1507, 0.2338,-0.3498, 0.0438,-0.0059, 0.4546,-0.0526,-0.3321, 2.9881
09-Sep-2020 11:19:05.476, 0.1645, 0.2679,-0.4875,-0.5694, 0.7980, 0.4822,-0.0514,-0.3320, 2.9928
09-Sep-2020 11:19:05.486, 0.1843, 0.2887,-0.7639,-0.9508, 1.1893, 0.5508,-0.0421,-0.3378, 2.9978
09-Sep-2020 11:19:05.496, 0.1357, 0.2913,-0.9938,-0.9522, 1.2785, 0.6618,-0.0286,-0.3471, 3.0034
09-Sep-2020 11:19:05.506, 0.1242, 0.3111,-1.1161,-0.7523, 1.1294, 0.7596,-0.0136,-0.3566, 3.0102
09-Sep-2020 11:19:05.515, 0.1432, 0.3174,-1.0645,-0.5522, 0.9141, 0.8147, 0.0004,-0.3641, 3.0183
09-Sep-2020 11:19:05.526, 0.1286, 0.3074,-0.9447,-0.5350, 0.7408, 0.8010, 0.0126,-0.3696, 3.0271
09-Sep-2020 11:19:05.535, 0.1390, 0.3381,-0.9102,-0.5473, 0.5864, 0.7461, 0.0232,-0.3748, 3.0358
09-Sep-2020 11:19:05.545, 0.2194, 0.3635,-0.9061,-0.5142, 0.3598, 0.7245, 0.0320,-0.3799, 3.0441
09-Sep-2020 11:19:05.556, 0.3187, 0.3580,-0.8638,-0.4812, 0.0747, 0.8457, 0.0385,-0.3847, 3.0522
09-Sep-2020 11:19:05.565, 0.0818, 0.4607,-0.8102,-0.4491,-0.0555, 0.8599, 0.0429,-0.3892, 3.0615
09-Sep-2020 11:19:05.575,-0.2329, 0.5789,-0.9835,-0.1813,-0.0147, 0.5342, 0.0460,-0.3930, 3.0708
09-Sep-2020 11:19:05.585, 0.0034, 0.4589,-1.0782, 0.1370,-0.1575, 0.5394, 0.0480,-0.3945, 3.0770
09-Sep-2020 11:19:05.595, 0.0060, 0.4039,-1.0655, 0.2193,-0.3101, 0.6040, 0.0487,-0.3930, 3.0828
09-Sep-2020 11:19:05.605,-0.0776, 0.3747,-1.1193, 0.2584,-0.4719, 0.5495, 0.0481,-0.3905, 3.0891
09-Sep-2020 11:19:05.615,-0.0391, 0.3659,-1.0722, 0.3095,-0.4857, 0.4900, 0.0457,-0.3877, 3.0950
09-Sep-2020 11:19:05.625, 0.0374, 0.3725,-1.0632, 0.4123,-0.4527, 0.4713, 0.0429,-0.3843, 3.1002
09-Sep-2020 11:19:05.635, 0.1036, 0.3631,-1.0564, 0.5321,-0.4673, 0.5267, 0.0402,-0.3800, 3.1052
09-Sep-2020 11:19:05.645, 0.1281, 0.3666,-1.0458, 0.6518,-0.5555, 0.6087, 0.0375,-0.3744, 3.1107
09-Sep-2020 11:19:05.655, 0.1355, 0.3556,-1.0374, 0.7970,-0.6376, 0.7082, 0.0343,-0.3677, 3.1171
09-Sep-2020 11:19:05.665, 0.1070, 0.3200,-0.9896, 0.8750,-0.6049, 0.7850, 0.0306,-0.3595, 3.1244
09-Sep-2020 11:19:05.675, 0.0719, 0.2831,-0.8809, 0.8145,-0.3578, 0.7578, 0.0275,-0.3506, 3.1325
09-Sep-2020 11:19:05.685, 0.0795, 0.2615,-0.8349, 0.6726,-0.0328, 0.6861, 0.0267,-0.3423, 3.1403
09-Sep-2020 11:19:05.695, 0.1159, 0.2323,-0.8563, 0.5672, 0.1646, 0.6532, 0.0286,-0.3354,-3.1358
09-Sep-2020 11:19:05.705, 0.1351, 0.2209,-0.8945, 0.4789, 0.2035, 0.6546, 0.0324,-0.3295,-3.1290
09-Sep-2020 11:19:05.715, 0.1721, 0.2347,-0.9399, 0.4681, 0.1009, 0.7005, 0.0365,-0.3244,-3.1221
09-Sep-2020 11:19:05.725, 0.1570, 0.2000,-0.9327, 0.4424, 0.0356, 0.7353, 0.0398,-0.3195,-3.1149
09-Sep-2020 11:19:05.735, 0.1565, 0.1327,-1.0535, 0.4662,-0.2539, 0.7998, 0.0423,-0.3147,-3.1073
09-Sep-2020 11:19:05.745, 0.0844, 0.0538,-1.0069, 0.5078,-0.4675, 0.8361, 0.0423,-0.3096,-3.0991
09-Sep-2020 11:19:05.755, 0.0722, 0.0155,-0.9317, 0.4197,-0.5788, 0.8872, 0.0403,-0.3043,-3.0906
09-Sep-2020 11:19:05.765, 0.0035, 0.0520,-0.8020, 0.1416,-0.4595, 1.0526, 0.0374,-0.2999,-3.0813
09-Sep-2020 11:19:05.774, 0.0095, 0.0877,-0.7086,-0.1835, 0.1255, 1.3882, 0.0365,-0.2981,-3.0702
09-Sep-2020 11:19:05.784, 0.0227, 0.0854,-0.7220,-0.4883, 0.7286, 1.7060, 0.0420,-0.2993,-3.0556
09-Sep-2020 11:19:05.794, 0.0361, 0.1001,-0.7901,-0.7461, 1.1646, 1.8864, 0.0545,-0.3033,-3.0376
09-Sep-2020 11:19:05.804, 0.0634, 0.1371,-0.8778,-0.9643, 1.3279, 1.9881, 0.0720,-0.3095,-3.0175
09-Sep-2020 11:19:05.815, 0.0924, 0.1317,-0.9684,-1.0898, 1.2873, 2.1406, 0.0917,-0.3173,-2.9958
09-Sep-2020 11:19:05.824, 0.1151, 0.1025,-1.0288,-1.1346, 1.0915, 2.3588, 0.1119,-0.3258,-2.9722
09-Sep-2020 11:19:05.834, 0.1038, 0.1137,-1.0398,-1.1289, 0.8491, 2.6124, 0.1312,-0.3341,-2.9460
09-Sep-2020 11:19:05.844, 0.0621, 0.1636,-1.0193,-1.0931, 0.7306, 2.8361, 0.1493,-0.3415,-2.9170
09-Sep-2020 11:19:05.856, 0.0445, 0.2052,-0.9798,-1.0860, 0.7348, 3.0655, 0.1673,-0.3478,-2.8855
09-Sep-2020 11:19:05.864, 0.0670, 0.2249,-0.9392,-1.1477, 0.8646, 3.3255, 0.1864,-0.3531,-2.8514
09-Sep-2020 11:19:05.874, 0.0928, 0.2442,-0.9104,-1.3114, 1.0086, 3.5817, 0.2079,-0.3578,-2.8143
09-Sep-2020 11:19:05.884, 0.1036, 0.2671,-0.9039,-1.5422, 1.0965, 3.8192, 0.2321,-0.3628,-2.7741
09-Sep-2020 11:19:05.894, 0.1370, 0.2913,-0.9035,-1.7822, 1.2164, 4.0716, 0.2586,-0.3684,-2.7305
09-Sep-2020 11:19:05.904, 0.1701, 0.3307,-0.8959,-2.0431, 1.3208, 4.3401, 0.2878,-0.3745,-2.6834
09-Sep-2020 11:19:05.914, 0.2135, 0.3611,-0.8800,-2.3148, 1.4172, 4.6140, 0.3197,-0.3809,-2.6324
09-Sep-2020 11:19:05.925, 0.2595, 0.3828,-0.8623,-2.5611, 1.5077, 4.8947, 0.3544,-0.3874,-2.5774
09-Sep-2020 11:19:05.934, 0.3047, 0.4147,-0.8355,-2.7730, 1.5977, 5.1832, 0.3920,-0.3933,-2.5182
09-Sep-2020 11:19:05.943, 0.3528, 0.4424,-0.7983,-2.9601, 1.6760, 5.4839, 0.4322,-0.3978,-2.4550
09-Sep-2020 11:19:05.953, 0.3911, 0.4691,-0.7956,-3.0646, 1.7391, 5.7714, 0.4750,-0.4003,-2.3877
09-Sep-2020 11:19:05.964, 0.4186, 0.5142,-0.8221,-3.0810, 1.6827, 6.0174, 0.5198,-0.3996,-2.3171
09-Sep-2020 11:19:05.974, 0.5285, 0.5134,-0.7979,-3.0592, 1.6059, 6.2216, 0.5647,-0.3948,-2.2443
09-Sep-2020 11:19:05.983, 0.5833, 0.5048,-0.7577,-3.0379, 1.5897, 6.3120, 0.6089,-0.3859,-2.1704
09-Sep-2020 11:19:05.993, 0.6380, 0.5136,-0.7154,-3.0581, 1.5269, 6.3490, 0.6521,-0.3732,-2.0965
09-Sep-2020 11:19:06.003, 0.7195, 0.4988,-0.6960,-3.0892, 1.4005, 6.4049, 0.6934,-0.3576,-2.0233
09-Sep-2020 11:19:06.013, 0.7874, 0.5014,-0.6586,-3.1178, 1.2985, 6.4580, 0.7322,-0.3390,-1.9505
09-Sep-2020 11:19:06.024, 0.8259, 0.5212,-0.6218,-3.1403, 1.1975, 6.4602, 0.7684,-0.3178,-1.8785
09-Sep-2020 11:19:06.033, 0.8293, 0.5583,-0.5928,-3.1278, 1.0670, 6.3357, 0.8016,-0.2944,-1.8077
09-Sep-2020 11:19:06.043, 0.8295, 0.5885,-0.5483,-3.0743, 0.9166, 6.0979, 0.8313,-0.2698,-1.7391
09-Sep-2020 11:19:06.053, 0.8083, 0.6020,-0.5070,-2.9583, 0.7651, 5.7727, 0.8570,-0.2447,-1.6739
09-Sep-2020 11:19:06.063, 0.7964, 0.5608,-0.4910,-2.7556, 0.6871, 5.3865, 0.8788,-0.2198,-1.6127
09-Sep-2020 11:19:06.073, 0.7963, 0.4741,-0.5035,-2.4661, 0.5879, 4.9905, 0.8972,-0.1954,-1.5564
09-Sep-2020 11:19:06.083, 0.7972, 0.3827,-0.5112,-2.1205, 0.4375, 4.6318, 0.9123,-0.1713,-1.5056
09-Sep-2020 11:19:06.093, 0.8063, 0.3058,-0.5151,-1.7523, 0.2051, 4.3357, 0.9238,-0.1474,-1.4602
09-Sep-2020 11:19:06.103, 0.8482, 0.2448,-0.5188,-1.3618,-0.0290, 4.1697, 0.9313,-0.1232,-1.4200
09-Sep-2020 11:19:06.113, 0.8591, 0.2230,-0.5335,-0.9436,-0.1708, 4.0642, 0.9350,-0.0978,-1.3842
09-Sep-2020 11:19:06.123, 0.8742, 0.2203,-0.5409,-0.5550,-0.3316, 3.9917, 0.9360,-0.0707,-1.3525
09-Sep-2020 11:19:06.133, 0.8999, 0.2120,-0.5320,-0.2569,-0.5862, 3.9504, 0.9342,-0.0420,-1.3243
09-Sep-2020 11:19:06.142, 0.8845, 0.1812,-0.5149, 0.0080,-0.7800, 3.8712, 0.9290,-0.0119,-1.2988
09-Sep-2020 11:19:06.153, 0.8422, 0.1428,-0.5403, 0.2877,-0.8292, 3.6716, 0.9213, 0.0190,-1.2757
09-Sep-2020 11:19:06.162, 1.0180,-0.0756,-0.9215, 0.1938,-1.8576, 3.3715, 0.9117, 0.0497,-1.2556
09-Sep-2020 11:19:06.172, 0.8405,-0.3086,-0.7773,-0.8307,-2.4509, 2.5547, 0.8921, 0.0765,-1.2361
09-Sep-2020 11:19:06.183, 0.6187,-0.4344,-0.3536,-2.0745,-0.0814, 2.2407, 0.8683, 0.0910,-1.2130
09-Sep-2020 11:19:06.192, 0.6245,-0.2432,-0.4448,-2.5364, 1.2345, 2.6080, 0.8636, 0.0954,-1.1829
09-Sep-2020 11:19:06.202, 0.7647, 0.1258,-0.4620,-2.7214, 1.7513, 2.6077, 0.8720, 0.0988,-1.1469
09-Sep-2020 11:19:06.212, 0.9600, 0.1942,-0.5199,-2.7178, 1.6299, 2.5703, 0.8852, 0.1017,-1.1094
09-Sep-2020 11:19:06.222, 1.0516, 0.0821,-0.6475,-2.4754, 1.4230, 2.5916, 0.8976, 0.1048,-1.0722
09-Sep-2020 11:19:06.233, 0.9960,-0.0462,-0.7109,-2.1712, 1.2564, 2.6206, 0.9080, 0.1099,-1.0367
09-Sep-2020 11:19:06.242, 0.8921,-0.1276,-0.7194,-1.9233, 1.0407, 2.6567, 0.9166, 0.1173,-1.0034
09-Sep-2020 11:19:06.252, 0.8098,-0.1333,-0.6960,-1.7930, 0.8381, 2.6985, 0.9232, 0.1268,-0.9718
09-Sep-2020 11:19:06.262, 0.7921,-0.0729,-0.6848,-1.8587, 0.6193, 2.7219, 0.9275, 0.1375,-0.9410
09-Sep-2020 11:19:06.272, 0.8489,-0.0063,-0.6794,-2.0118, 0.4160, 2.6893, 0.9292, 0.1481,-0.9096
09-Sep-2020 11:19:06.282, 0.8997, 0.0070,-0.6238,-2.0442, 0.3535, 2.6086, 0.9284, 0.1577,-0.8772
09-Sep-2020 11:19:06.292, 1.1297, 0.0332,-0.5591,-1.9447, 0.4024, 2.7389, 0.9268, 0.1665,-0.8450
09-Sep-2020 11:19:06.302, 1.2369, 0.0550,-0.5535,-1.7407, 0.4162, 2.9416, 0.9253, 0.1768,-0.8127
09-Sep-2020 11:19:06.312, 1.1405,-0.0375,-0.5442,-1.5450, 0.4642, 2.9752, 0.9237, 0.1897,-0.7807
09-Sep-2020 11:19:06.322, 1.0506,-0.1815,-0.4834,-1.4943, 0.5318, 3.0656, 0.9222, 0.2041,-0.7499
09-Sep-2020 11:19:06.332, 1.0067,-0.2867,-0.4010,-1.5354, 0.7446, 3.2392, 0.9211, 0.2195,-0.7188
09-Sep-2020 11:19:06.342, 0.9835,-0.3122,-0.3624,-1.5552, 1.1427, 3.3926, 0.9212, 0.2360,-0.6863
09-Sep-2020 11:19:06.352, 0.9777,-0.2876,-0.3780,-1.5315, 1.6161, 3.4812, 0.9244, 0.2536,-0.6527
09-Sep-2020 11:19:06.361, 0.9568,-0.2714,-0.4588,-1.4888, 1.9110, 3.5054, 0.9315, 0.2723,-0.6185
09-Sep-2020 11:19:06.371, 0.8712,-0.2532,-0.4930,-1.4732, 2.1639, 3.3850, 0.9411, 0.2916,-0.5846
09-Sep-2020 11:19:06.381, 0.7706,-0.2143,-0.5027,-1.5247, 2.3728, 3.0555, 0.9528, 0.3103,-0.5516
09-Sep-2020 11:19:06.392, 0.7047,-0.1972,-0.4828,-1.6526, 2.4482, 2.6143, 0.9665, 0.3265,-0.5201
09-Sep-2020 11:19:06.401, 0.6445,-0.2022,-0.3967,-1.9464, 2.3928, 2.1232, 0.9809, 0.3387,-0.4901
09-Sep-2020 11:19:06.411, 0.6312,-0.1899,-0.3708,-2.3352, 2.1418, 1.6189, 0.9947, 0.3457,-0.4605
09-Sep-2020 11:19:06.421, 0.7258,-0.1810,-0.5009,-2.6164, 1.5892, 1.2528, 1.0056, 0.3469,-0.4305
09-Sep-2020 11:19:06.431, 0.7991,-0.1897,-0.5674,-2.7649, 1.0841, 1.0310, 1.0111, 0.3438,-0.4000
09-Sep-2020 11:19:06.441, 0.8464,-0.2016,-0.5925,-2.8197, 0.9269, 0.9363, 1.0119, 0.3381,-0.3695
09-Sep-2020 11:19:06.451, 0.9035,-0.2152,-0.6904,-2.7367, 0.9866, 0.9941, 1.0113, 0.3313,-0.3391
09-Sep-2020 11:19:06.461, 0.9230,-0.2183,-0.7780,-2.4877, 1.1585, 1.1558, 1.0115, 0.3255,-0.3092
09-Sep-2020 11:19:06.471, 0.8787,-0.2048,-0.8514,-2.1168, 1.3390, 1.2891, 1.0139, 0.3222,-0.2807
09-Sep-2020 11:19:06.481, 0.8106,-0.1991,-0.8694,-1.7395, 1.4801, 1.3404, 1.0190, 0.3221,-0.2547
09-Sep-2020 11:19:06.491, 0.7410,-0.1862,-0.8597,-1.4270, 1.5123, 1.2865, 1.0264, 0.3244,-0.2318
09-Sep-2020 11:19:06.501, 0.7133,-0.1844,-0.8407,-1.2117, 1.3904, 1.2075, 1.0350, 0.3282,-0.2120
09-Sep-2020 11:19:06.511, 0.7153,-0.1909,-0.7561,-1.0755, 1.3015, 1.1767, 1.0432, 0.3325,-0.1945
09-Sep-2020 11:19:06.521, 0.6990,-0.1679,-0.6211,-1.0283, 1.2958, 1.1404, 1.0509, 0.3373,-0.1784
09-Sep-2020 11:19:06.531, 0.6625,-0.1320,-0.4146,-1.1886, 1.3823, 1.0910, 1.0587, 0.3422,-0.1629
09-Sep-2020 11:19:06.541, 0.7811,-0.1571,-0.6441,-1.5111, 1.1008, 0.9961, 1.0665, 0.3459,-0.1462
09-Sep-2020 11:19:06.551, 1.0908,-0.3674,-1.5913,-0.9550,-1.1085, 1.3503, 1.0678, 0.3487,-0.1280
09-Sep-2020 11:19:06.561, 0.7765,-0.4668,-0.6162,-0.9693,-0.8162, 1.3975, 1.0528, 0.3554,-0.1117
09-Sep-2020 11:19:06.571, 0.6595,-0.4742,-0.7696,-0.6599,-0.8614, 1.3676, 1.0386, 0.3628,-0.0957
09-Sep-2020 11:19:06.581, 0.6415,-0.4608,-0.7454,-0.4116,-0.9638, 1.2517, 1.0252, 0.3711,-0.0821
09-Sep-2020 11:19:06.591, 0.5981,-0.4950,-0.6501,-0.2859,-0.8113, 1.2557, 1.0118, 0.3797,-0.0712
09-Sep-2020 11:19:06.601, 0.5163,-0.4756,-0.6288,-0.1653,-0.7259, 1.2442, 1.0000, 0.3888,-0.0614
09-Sep-2020 11:19:06.610, 0.4517,-0.4558,-0.6035,-0.0613,-0.7842, 1.1684, 0.9893, 0.3983,-0.0526
09-Sep-2020 11:19:06.621, 0.3967,-0.4314,-0.5739,-0.0212,-0.9113, 1.0641, 0.9784, 0.4077,-0.0450
09-Sep-2020 11:19:06.630, 0.3513,-0.4029,-0.5454,-0.0458,-1.0676, 0.9404, 0.9666, 0.4164,-0.0383
09-Sep-2020 11:19:06.640, 0.3368,-0.3755,-0.4980,-0.1106,-1.2072, 0.8425, 0.9534, 0.4239,-0.0320
09-Sep-2020 11:19:06.651, 0.3362,-0.3369,-0.4588,-0.1618,-1.2992, 0.7924, 0.9388, 0.4301,-0.0256
09-Sep-2020 11:19:06.660, 0.3342,-0.3065,-0.4518,-0.1471,-1.4625, 0.8171, 0.9230, 0.4356,-0.0190
09-Sep-2020 11:19:06.671, 0.3630,-0.2896,-0.4673,-0.0393,-1.7490, 0.9279, 0.9055, 0.4413,-0.0122
09-Sep-2020 11:19:06.680, 0.3959,-0.2787,-0.4857, 0.1974,-2.1475, 1.0670, 0.8851, 0.4485,-0.0055
09-Sep-2020 11:19:06.690, 0.4364,-0.3042,-0.5110, 0.5139,-2.6555, 1.2184, 0.8611, 0.4580, 0.0004
09-Sep-2020 11:19:06.700, 0.4623,-0.3550,-0.5066, 0.8324,-3.1340, 1.3321, 0.8325, 0.4705, 0.0051
09-Sep-2020 11:19:06.710, 0.4527,-0.4235,-0.4653, 1.0431,-3.3241, 1.3594, 0.7999, 0.4858, 0.0085
09-Sep-2020 11:19:06.720, 0.4117,-0.4953,-0.4225, 1.1117,-3.1973, 1.2722, 0.7658, 0.5027, 0.0112
09-Sep-2020 11:19:06.730, 0.3317,-0.5940,-0.3359, 0.9701,-2.7039, 1.0398, 0.7331, 0.5194, 0.0132
09-Sep-2020 11:19:06.740, 0.1677,-0.8095,-0.1043, 0.2471,-1.2877, 0.4866, 0.7059, 0.5331, 0.0150
09-Sep-2020 11:19:06.750, 0.0799,-0.9683,-0.0512,-0.7348, 0.4407,-0.0977, 0.6920, 0.5380, 0.0176
09-Sep-2020 11:19:06.760, 0.2086,-0.8480,-0.1087,-1.3159, 1.3536,-0.3830, 0.6935, 0.5322, 0.0221
09-Sep-2020 11:19:06.770, 0.4039,-0.6029,-0.1598,-1.6027, 1.5504,-0.4617, 0.7033, 0.5200, 0.0285
09-Sep-2020 11:19:06.780, 0.5467,-0.4688,-0.2791,-1.7692, 1.2661,-0.4262, 0.7145, 0.5051, 0.0365
09-Sep-2020 11:19:06.790, 0.5896,-0.3951,-0.3484,-1.9841, 0.8368,-0.3352, 0.7224, 0.4891, 0.0461
09-Sep-2020 11:19:06.799, 0.5988,-0.3018,-0.3972,-2.3053, 0.4993,-0.2787, 0.7253, 0.4721, 0.0581
09-Sep-2020 11:19:06.810, 0.6195,-0.1989,-0.4905,-2.5842, 0.2273,-0.3049, 0.7237, 0.4532, 0.0728
09-Sep-2020 11:19:06.819, 0.6353,-0.1393,-0.6112,-2.6877,-0.1112,-0.3790, 0.7190, 0.4320, 0.0890
09-Sep-2020 11:19:06.829, 0.6431,-0.1360,-0.7045,-2.6303,-0.5182,-0.4238, 0.7112, 0.4095, 0.1050
09-Sep-2020 11:19:06.839, 0.6452,-0.1719,-0.7324,-2.4767,-0.7993,-0.3777, 0.7003, 0.3870, 0.1200
09-Sep-2020 11:19:06.849, 0.6385,-0.2082,-0.7218,-2.2637,-0.8955,-0.2422, 0.6873, 0.3658, 0.1339
09-Sep-2020 11:19:06.859, 0.6179,-0.2398,-0.6826,-2.0033,-0.8526,-0.0475, 0.6739, 0.3469, 0.1471
09-Sep-2020 11:19:06.869, 0.5883,-0.2665,-0.6227,-1.7427,-0.6924, 0.1829, 0.6613, 0.3310, 0.1599
09-Sep-2020 11:19:06.879, 0.5211,-0.2682,-0.5766,-1.4989,-0.4364, 0.3662, 0.6504, 0.3184, 0.1726
09-Sep-2020 11:19:06.889, 0.4275,-0.2537,-0.5455,-1.2754,-0.0993, 0.4186, 0.6423, 0.3087, 0.1850
09-Sep-2020 11:19:06.899, 0.3595,-0.2484,-0.5479,-1.0962, 0.2260, 0.3530, 0.6378, 0.3010, 0.1965
09-Sep-2020 11:19:06.909, 0.3266,-0.2306,-0.5626,-0.9830, 0.4958, 0.1808, 0.6371, 0.2943, 0.2062
09-Sep-2020 11:19:06.919, 0.3230,-0.2070,-0.5837,-0.9227, 0.6920,-0.0412, 0.6398, 0.2876, 0.2139
09-Sep-2020 11:19:06.929, 0.3324,-0.1837,-0.6099,-0.9169, 0.8334,-0.2745, 0.6452, 0.2800, 0.2193
09-Sep-2020 11:19:06.939, 0.3459,-0.1584,-0.6421,-0.9459, 0.9701,-0.5116, 0.6525, 0.2712, 0.2228
09-Sep-2020 11:19:06.949, 0.3752,-0.1358,-0.6911,-0.9409, 1.1323,-0.7487, 0.6617, 0.2607, 0.2246
09-Sep-2020 11:19:06.959, 0.4151,-0.1173,-0.7463,-0.8895, 1.3136,-0.9661, 0.6730, 0.2488, 0.2246
09-Sep-2020 11:19:06.969, 0.4504,-0.1013,-0.8053,-0.7752, 1.5022,-1.1877, 0.6865, 0.2360, 0.2226
09-Sep-2020 11:19:06.978, 0.4798,-0.1010,-0.8554,-0.6137, 1.6784,-1.4447, 0.7024, 0.2226, 0.2184
09-Sep-2020 11:19:06.989, 0.5162,-0.1206,-0.8863,-0.4321, 1.8904,-1.7266, 0.7206, 0.2086, 0.2113
09-Sep-2020 11:19:06.998, 0.5686,-0.1426,-0.8985,-0.2507, 2.1097,-1.9839, 0.7415, 0.1940, 0.2012
09-Sep-2020 11:19:07.008, 0.6185,-0.1487,-0.8947,-0.0695, 2.3286,-2.2064, 0.7648, 0.1788, 0.1883
09-Sep-2020 11:19:07.018, 0.6597,-0.1438,-0.8787, 0.1077, 2.5794,-2.4057, 0.7906, 0.1630, 0.1730
09-Sep-2020 11:19:07.028, 0.7136,-0.1286,-0.8646, 0.2863, 2.9116,-2.6034, 0.8191, 0.1465, 0.1554
09-Sep-2020 11:19:07.038, 0.7984,-0.1060,-0.8684, 0.4861, 3.3233,-2.8080, 0.8508, 0.1293, 0.1357
09-Sep-2020 11:19:07.048, 0.9303,-0.0734,-0.9328, 0.7053, 3.6477,-3.0111, 0.8865, 0.1112, 0.1138
09-Sep-2020 11:19:07.058, 1.1071,-0.0371,-1.0633, 0.8927, 3.6020,-3.2040, 0.9249, 0.0920, 0.0897
09-Sep-2020 11:19:07.068, 1.2430,-0.0317,-1.1042, 1.1296, 3.5876,-3.2800, 0.9630, 0.0715, 0.0638
09-Sep-2020 11:19:07.078, 1.4268,-0.0529,-1.1714, 1.4752, 3.5335,-3.2101, 1.0003, 0.0508, 0.0362
09-Sep-2020 11:19:07.088, 1.6004,-0.0875,-1.2215, 1.8665, 3.3047,-2.9798, 1.0365, 0.0315, 0.0069
09-Sep-2020 11:19:07.098, 1.6854,-0.1039,-1.2294, 2.2992, 2.9395,-2.5977, 1.0700, 0.0151,-0.0239
09-Sep-2020 11:19:07.108, 1.6846,-0.0963,-1.1728, 2.6998, 2.5038,-2.1433, 1.0995, 0.0030,-0.0562
09-Sep-2020 11:19:07.118, 1.6251,-0.1070,-1.0579, 3.0164, 2.0349,-1.6923, 1.1244,-0.0041,-0.0897
09-Sep-2020 11:19:07.128, 1.5554,-0.1328,-0.9143, 3.2174, 1.5203,-1.2662, 1.1444,-0.0067,-0.1239
09-Sep-2020 11:19:07.138, 1.4827,-0.1395,-0.7521, 3.2786, 1.0097,-0.8812, 1.1593,-0.0052,-0.1583
09-Sep-2020 11:19:07.148, 1.4288,-0.1383,-0.6032, 3.1872, 0.5252,-0.5103, 1.1692,-0.0003,-0.1916
09-Sep-2020 11:19:07.158, 1.3781,-0.1292,-0.4693, 2.9675, 0.0679,-0.1468, 1.1746, 0.0074,-0.2227
09-Sep-2020 11:19:07.168, 1.3146,-0.1136,-0.3549, 2.6657,-0.3188, 0.1946, 1.1756, 0.0174,-0.2505
09-Sep-2020 11:19:07.178, 1.2335,-0.0943,-0.2779, 2.3217,-0.6545, 0.4842, 1.1730, 0.0295,-0.2743
09-Sep-2020 11:19:07.188, 1.1475,-0.0611,-0.2239, 1.9933,-0.9437, 0.6600, 1.1672, 0.0430,-0.2937
09-Sep-2020 11:19:07.197, 1.0408,-0.0210,-0.1424, 1.6792,-1.0693, 0.7225, 1.1587, 0.0569,-0.3094
09-Sep-2020 11:19:07.208, 0.8572, 0.0088,-0.1074, 1.4306,-1.1016, 0.6416, 1.1489, 0.0702,-0.3218
09-Sep-2020 11:19:07.218, 0.8203, 0.0748,-0.0206, 1.2906,-1.0556, 0.4447, 1.1388, 0.0820,-0.3323
09-Sep-2020 11:19:07.227, 0.9173, 0.1055, 0.1548, 1.2219,-0.5489, 0.2861, 1.1295, 0.0915,-0.3421
09-Sep-2020 11:19:07.238, 0.9465, 0.1137, 0.0700, 1.1164,-0.1860, 0.2609, 1.1248, 0.0995,-0.3519
09-Sep-2020 11:19:07.247, 0.9395, 0.0904,-0.0787, 0.8664,-0.2827, 0.2710, 1.1235, 0.1067,-0.3607
09-Sep-2020 11:19:07.257, 1.0239, 0.0393,-0.0680, 0.5282,-0.4019, 0.2814, 1.1215, 0.1129,-0.3673
09-Sep-2020 11:19:07.268, 1.0420, 0.0049,-0.1077, 0.1851,-0.7869, 0.3300, 1.1176, 0.1178,-0.3709
09-Sep-2020 11:19:07.277, 0.9949,-0.0005,-0.1035,-0.1749,-1.2672, 0.3538, 1.1098, 0.1216,-0.3711
09-Sep-2020 11:19:07.287, 1.0035,-0.0160,-0.1716,-0.4651,-1.7691, 0.3695, 1.0967, 0.1241,-0.3680
09-Sep-2020 11:19:07.297, 0.9891,-0.0227,-0.3057,-0.6001,-2.2220, 0.3989, 1.0784, 0.1253,-0.3622
09-Sep-2020 11:19:07.307, 1.0440,-0.0486,-0.4599,-0.6237,-2.6202, 0.5218, 1.0553, 0.1262,-0.3550
09-Sep-2020 11:19:07.317, 0.9389,-0.0864,-0.5031,-0.6227,-2.7302, 0.6611, 1.0284, 0.1276,-0.3470
09-Sep-2020 11:19:07.328, 0.7617,-0.0972,-0.4681,-0.5948,-2.5176, 0.6971, 1.0003, 0.1299,-0.3382
09-Sep-2020 11:19:07.337, 0.6864,-0.0827,-0.5273,-0.4259,-2.3075, 0.6110, 0.9741, 0.1325,-0.3295
09-Sep-2020 11:19:07.347, 0.6877,-0.0879,-0.6058,-0.1895,-2.1938, 0.5018, 0.9501, 0.1352,-0.3225
09-Sep-2020 11:19:07.357, 0.7081,-0.0959,-0.6647, 0.0426,-2.0557, 0.4699, 0.9277, 0.1382,-0.3179
09-Sep-2020 11:19:07.367, 0.6993,-0.1098,-0.6740, 0.2301,-1.8223, 0.4625, 0.9069, 0.1423,-0.3153
09-Sep-2020 11:19:07.377, 0.6626,-0.1606,-0.6909, 0.3595,-1.6143, 0.4411, 0.8886, 0.1473,-0.3142
09-Sep-2020 11:19:07.386, 0.6735,-0.1943,-0.7413, 0.4885,-1.5284, 0.3713, 0.8725, 0.1531,-0.3142
09-Sep-2020 11:19:07.397, 0.8085,-0.1924,-0.8635, 0.5457,-1.8394, 0.3361, 0.8573, 0.1591,-0.3154
09-Sep-2020 11:19:07.406, 0.5857,-0.2523,-0.7735, 0.3787,-1.9834, 0.3212, 0.8396, 0.1651,-0.3171
09-Sep-2020 11:19:07.417, 0.5423,-0.3116,-0.7164, 0.2420,-1.9539, 0.2227, 0.8201, 0.1701,-0.3178
09-Sep-2020 11:19:07.427, 0.5499,-0.2821,-0.7260, 0.2460,-1.9440, 0.0680, 0.8006, 0.1735,-0.3181
09-Sep-2020 11:19:07.437, 0.5201,-0.2407,-0.7041, 0.2531,-1.8955,-0.0306, 0.7815, 0.1758,-0.3193
09-Sep-2020 11:19:07.446, 0.4883,-0.2316,-0.5991, 0.1969,-1.6136,-0.0973, 0.7631, 0.1774,-0.3213
09-Sep-2020 11:19:07.456, 0.4427,-0.2352,-0.5234, 0.1147,-1.2590,-0.2114, 0.7475, 0.1782,-0.3234
09-Sep-2020 11:19:07.466, 0.4191,-0.2328,-0.4490,-0.0030,-0.9015,-0.3692, 0.7354, 0.1777,-0.3257
09-Sep-2020 11:19:07.477, 0.4673,-0.2217,-0.4376,-0.1540,-0.6160,-0.4881, 0.7268, 0.1753,-0.3284
09-Sep-2020 11:19:07.486, 0.5329,-0.1823,-0.4784,-0.3023,-0.4524,-0.5555, 0.7210, 0.1710,-0.3310
09-Sep-2020 11:19:07.496, 0.6049,-0.1573,-0.5235,-0.4430,-0.3588,-0.5706, 0.7169, 0.1652,-0.3332
09-Sep-2020 11:19:07.506, 0.7507,-0.1430,-0.6630,-0.5331,-0.4311,-0.4709, 0.7134, 0.1583,-0.3345
09-Sep-2020 11:19:07.516, 0.8050,-0.1014,-0.7324,-0.5802,-0.4848,-0.3601, 0.7092, 0.1513,-0.3346
09-Sep-2020 11:19:07.526, 0.7364,-0.0927,-0.7104,-0.6777,-0.3634,-0.3291, 0.7043, 0.1446,-0.3335
09-Sep-2020 11:19:07.536, 0.6766,-0.0887,-0.7649,-0.7116,-0.3235,-0.3871, 0.7003, 0.1374,-0.3317
09-Sep-2020 11:19:07.546, 0.6459,-0.0591,-0.7830,-0.6900,-0.3051,-0.5222, 0.6969, 0.1296,-0.3301
09-Sep-2020 11:19:07.556, 0.6443,-0.0518,-0.7291,-0.7102,-0.1858,-0.6335, 0.6938, 0.1210,-0.3296
09-Sep-2020 11:19:07.566, 0.6871,-0.0726,-0.7341,-0.7146,-0.1283,-0.6692, 0.6920, 0.1117,-0.3299
09-Sep-2020 11:19:07.576, 0.6986,-0.0609,-0.6470,-0.7505, 0.0001,-0.6866, 0.6908, 0.1020,-0.3305
09-Sep-2020 11:19:07.586, 0.6062,-0.0252,-0.5447,-0.8633, 0.2745,-0.7892, 0.6909, 0.0919,-0.3310
09-Sep-2020 11:19:07.596, 0.4682, 0.0381,-0.4092,-1.1257, 0.7096,-1.0547, 0.6937, 0.0802,-0.3315
09-Sep-2020 11:19:07.606, 0.5058, 0.0219,-0.6465,-1.3028, 0.6801,-1.3092, 0.7003, 0.0651,-0.3324
09-Sep-2020 11:19:07.615, 0.5270,-0.0096,-0.7542,-1.3888, 0.6345,-1.4911, 0.7072, 0.0469,-0.3339
09-Sep-2020 11:19:07.625, 0.5246,-0.0177,-0.7509,-1.4504, 0.8345,-1.6196, 0.7138, 0.0269,-0.3361
09-Sep-2020 11:19:07.636, 0.5120, 0.0085,-0.7922,-1.4527, 1.1187,-1.7442, 0.7222, 0.0055,-0.3387
09-Sep-2020 11:19:07.645, 0.4131, 0.0841,-0.8568,-1.3432, 1.4244,-2.0333, 0.7333,-0.0168,-0.3422
09-Sep-2020 11:19:07.655, 0.4420, 0.1026,-1.0387,-0.9166, 1.5077,-2.3694, 0.7471,-0.0401,-0.3483
09-Sep-2020 11:19:07.665, 0.6844, 0.1090,-1.1163,-0.3096, 1.5351,-2.3913, 0.7616,-0.0627,-0.3591
09-Sep-2020 11:19:07.675, 0.8236, 0.1752,-1.0579, 0.3129, 1.5420,-2.1173, 0.7758,-0.0812,-0.3740
09-Sep-2020 11:19:07.686, 0.8139, 0.2276,-0.8001, 0.6376, 1.7400,-1.7921, 0.7898,-0.0939,-0.3910
09-Sep-2020 11:19:07.695, 0.7387, 0.1965,-0.5335, 0.6750, 2.0480,-1.5568, 0.8055,-0.1023,-0.4080
09-Sep-2020 11:19:07.705, 0.6711, 0.1321,-0.3468, 0.4173, 2.2267,-1.5341, 0.8242,-0.1091,-0.4235
09-Sep-2020 11:19:07.715, 0.6469, 0.0944,-0.4039, 0.2015, 2.1731,-1.6930, 0.8446,-0.1176,-0.4370
09-Sep-2020 11:19:07.725, 0.6485, 0.1073,-0.5514, 0.1104, 1.8432,-1.9230, 0.8645,-0.1289,-0.4497
09-Sep-2020 11:19:07.735, 0.8777, 0.0668,-0.5724,-0.0063, 1.5734,-1.9278, 0.8811,-0.1427,-0.4628
09-Sep-2020 11:19:07.745, 1.1468,-0.0031,-0.5824,-0.1147, 1.5028,-1.5339, 0.8951,-0.1574,-0.4749
09-Sep-2020 11:19:07.755, 1.1630, 0.0123,-0.6705,-0.1101, 1.4872,-1.0373, 0.9087,-0.1699,-0.4835
09-Sep-2020 11:19:07.765, 1.0093, 0.0874,-0.7105, 0.0187, 1.4305,-0.7388, 0.9224,-0.1787,-0.4892
09-Sep-2020 11:19:07.775, 0.9042, 0.0837,-0.6312, 0.0150, 1.2853,-0.5820, 0.9356,-0.1845,-0.4938
09-Sep-2020 11:19:07.785, 0.8403, 0.1539,-0.5477,-0.0180, 1.2147,-0.6054, 0.9478,-0.1891,-0.4974
09-Sep-2020 11:19:07.795, 0.7712, 0.2477,-0.5533,-0.1556, 0.9537,-0.7708, 0.9591,-0.1942,-0.5008
09-Sep-2020 11:19:07.805, 0.8090, 0.2543,-0.4770,-0.3968, 0.6538,-0.8793, 0.9680,-0.2013,-0.5038
09-Sep-2020 11:19:07.815, 0.8043, 0.2659,-0.4609,-0.5890, 0.4256,-0.9598, 0.9742,-0.2106,-0.5056
09-Sep-2020 11:19:07.825, 0.7773, 0.2783,-0.5247,-0.6600, 0.1255,-1.0534, 0.9782,-0.2217,-0.5061
09-Sep-2020 11:19:07.834, 0.7863, 0.2721,-0.5208,-0.7369,-0.1946,-1.1123, 0.9793,-0.2340,-0.5065
09-Sep-2020 11:19:07.845, 0.7457, 0.2724,-0.4655,-0.8355,-0.1927,-1.1063, 0.9776,-0.2471,-0.5066
09-Sep-2020 11:19:07.856, 0.6833, 0.2733,-0.5070,-0.8472, 0.0984,-1.0677, 0.9760,-0.2608,-0.5059
09-Sep-2020 11:19:07.864, 0.6688, 0.2726,-0.5669,-0.7619, 0.4224,-0.9891, 0.9773,-0.2741,-0.5048
09-Sep-2020 11:19:07.874, 0.6532, 0.2704,-0.5116,-0.6855, 0.7260,-0.8973, 0.9817,-0.2864,-0.5039
09-Sep-2020 11:19:07.884, 0.6157, 0.2645,-0.4600,-0.6639, 0.9537,-0.8596, 0.9890,-0.2976,-0.5031
09-Sep-2020 11:19:07.894, 0.6113, 0.2415,-0.4345,-0.7156, 1.0987,-0.8641, 0.9987,-0.3083,-0.5022
09-Sep-2020 11:19:07.904, 0.6652, 0.2348,-0.4298,-0.8272, 1.2466,-0.9019, 1.0101,-0.3194,-0.5007
09-Sep-2020 11:19:07.914, 0.7787, 0.2842,-0.4629,-0.9427, 1.3355,-0.8782, 1.0233,-0.3312,-0.4983
09-Sep-2020 11:19:07.924, 0.8160, 0.3353,-0.5326,-1.0798, 1.3078,-0.8404, 1.0378,-0.3435,-0.4945
09-Sep-2020 11:19:07.934, 0.8661, 0.3315,-0.5830,-1.1751, 1.0825,-0.8159, 1.0525,-0.3561,-0.4891
09-Sep-2020 11:19:07.944, 0.9651, 0.2977,-0.5130,-1.1990, 0.8360,-0.7080, 1.0655,-0.3687,-0.4824
09-Sep-2020 11:19:07.954, 0.9440, 0.2827,-0.4167,-1.2347, 0.7489,-0.5757, 1.0767,-0.3805,-0.4748
09-Sep-2020 11:19:07.964, 0.8850, 0.2989,-0.3971,-1.2654, 0.7229,-0.4965, 1.0875,-0.3913,-0.4660
09-Sep-2020 11:19:07.974, 0.8503, 0.3594,-0.4040,-1.2283, 0.7360,-0.4317, 1.0984,-0.4014,-0.4564
09-Sep-2020 11:19:07.984, 0.7472, 0.4622,-0.3820,-1.1615, 0.7852,-0.4516, 1.1096,-0.4107,-0.4467
09-Sep-2020 11:19:07.994, 0.7339, 0.4937,-0.3743,-1.0966, 0.7696,-0.4169, 1.1211,-0.4197,-0.4375
09-Sep-2020 11:19:08.004, 0.7180, 0.4848,-0.3416,-1.0451, 0.7010,-0.3066, 1.1324,-0.4280,-0.4286
09-Sep-2020 11:19:08.013, 0.6507, 0.4431,-0.2954,-0.9538, 0.7622,-0.2328, 1.1432,-0.4350,-0.4197
09-Sep-2020 11:19:08.024, 0.6441, 0.4294,-0.2742,-0.7791, 0.9607,-0.3201, 1.1544,-0.4410,-0.4113
09-Sep-2020 11:19:08.033, 0.6729, 0.4688,-0.2359,-0.5855, 1.1473,-0.5334, 1.1667,-0.4470,-0.4048
09-Sep-2020 11:19:08.044, 0.6824, 0.5152,-0.2654,-0.4462, 1.2840,-0.8061, 1.1796,-0.4541,-0.4012
09-Sep-2020 11:19:08.053, 0.7200, 0.4957,-0.2859,-0.3449, 1.3834,-1.0021, 1.1929,-0.4631,-0.3999
09-Sep-2020 11:19:08.063, 0.7504, 0.5163,-0.2865,-0.3140, 1.5232,-1.0925, 1.2065,-0.4734,-0.4003
09-Sep-2020 11:19:08.073, 0.7694, 0.5544,-0.3408,-0.2848, 1.6040,-1.1787, 1.2212,-0.4847,-0.4013
09-Sep-2020 11:19:08.083, 0.8254, 0.5607,-0.3782,-0.1892, 1.5851,-1.2275, 1.2364,-0.4966,-0.4028
09-Sep-2020 11:19:08.093, 0.8239, 0.6110,-0.3165,-0.1364, 1.5056,-1.3139, 1.2510,-0.5087,-0.4052
09-Sep-2020 11:19:08.103, 0.7558, 0.6107,-0.2566,-0.1467, 1.4373,-1.4939, 1.2644,-0.5216,-0.4084
09-Sep-2020 11:19:08.113, 0.7042, 0.6188,-0.1965,-0.1861, 1.3827,-1.7403, 1.2770,-0.5362,-0.4118
09-Sep-2020 11:19:08.123, 0.6821, 0.6231,-0.1891,-0.1816, 1.2750,-2.0483, 1.2888,-0.5532,-0.4156
09-Sep-2020 11:19:08.133, 0.7052, 0.6061,-0.1769,-0.1682, 0.9715,-2.3283, 1.2989,-0.5732,-0.4201
09-Sep-2020 11:19:08.144, 0.7483, 0.5894,-0.1722,-0.1300, 0.6277,-2.5558, 1.3054,-0.5959,-0.4256
09-Sep-2020 11:19:08.153, 0.7513, 0.6019,-0.2217,-0.0491, 0.4408,-2.7994, 1.3080,-0.6208,-0.4322
09-Sep-2020 11:19:08.163, 0.8458, 0.6049,-0.2364, 0.0532, 0.4359,-2.8850, 1.3074,-0.6476,-0.4406
09-Sep-2020 11:19:08.173, 0.8701, 0.6408,-0.2109, 0.0243, 0.5396,-2.8544, 1.3056,-0.6751,-0.4507
09-Sep-2020 11:19:08.183, 0.9473, 0.6195,-0.2528,-0.0470, 0.7076,-2.7271, 1.3047,-0.7022,-0.4607
09-Sep-2020 11:19:08.193, 1.0152, 0.6224,-0.2320,-0.1882, 0.9198,-2.4824, 1.3060,-0.7284,-0.4694
09-Sep-2020 11:19:08.203, 1.0309, 0.6323,-0.2312,-0.3841, 1.0877,-2.1776, 1.3110,-0.7526,-0.4756
09-Sep-2020 11:19:08.213, 1.0103, 0.6194,-0.2285,-0.5761, 1.2160,-1.8295, 1.3200,-0.7745,-0.4781
09-Sep-2020 11:19:08.223, 0.8858, 0.6754,-0.1780,-0.6903, 1.2950,-1.5632, 1.3332,-0.7935,-0.4766
09-Sep-2020 11:19:08.232, 0.6893, 0.7404,-0.0603,-0.7731, 1.3417,-1.4745, 1.3493,-0.8102,-0.4721
09-Sep-2020 11:19:08.242, 0.5041, 0.7686, 0.0202,-0.7697, 1.4758,-1.5623, 1.3673,-0.8262,-0.4658
09-Sep-2020 11:19:08.252, 0.3856, 0.7280,-0.0209,-0.6677, 1.5173,-1.7850, 1.3868,-0.8429,-0.4592
09-Sep-2020 11:19:08.262, 0.2874, 0.6633, 0.0544,-0.5724, 1.3550,-2.0609, 1.4057,-0.8615,-0.4540
09-Sep-2020 11:19:08.272, 0.2233, 0.6180, 0.0431,-0.5851, 1.1495,-2.4408, 1.4221,-0.8827,-0.4501
09-Sep-2020 11:19:08.282, 0.3420, 0.5543,-0.2531,-0.4046, 0.6456,-2.6865, 1.4360,-0.9074,-0.4466
09-Sep-2020 11:19:08.292, 0.3657, 0.5759,-0.2717,-0.2567, 0.3072,-2.8347, 1.4432,-0.9343,-0.4458
09-Sep-2020 11:19:08.302, 0.4179, 0.6171,-0.2265,-0.3174, 0.1941,-2.9030, 1.4451,-0.9625,-0.4473
09-Sep-2020 11:19:08.312, 0.4665, 0.6586,-0.0626,-0.6024, 0.3368,-2.8665, 1.4467,-0.9914,-0.4479
09-Sep-2020 11:19:08.322, 0.4447, 0.6749, 0.0607,-0.9824, 0.5915,-2.7941, 1.4542,-1.0204,-0.4432
09-Sep-2020 11:19:08.332, 0.4648, 0.6942, 0.0477,-1.2145, 0.5312,-2.6378, 1.4709,-1.0489,-0.4303
09-Sep-2020 11:19:08.342, 0.5744, 0.7514, 0.0374,-1.2087, 0.2214,-2.2793, 1.4932,-1.0759,-0.4107
09-Sep-2020 11:19:08.352, 0.6563, 0.8569, 0.0490,-1.0015, 0.2301,-1.8515, 1.5153,-1.0993,-0.3885
09-Sep-2020 11:19:08.362, 0.7311, 0.9782, 0.0155,-0.7270, 0.4151,-1.3301, 1.5359,-1.1180,-0.3681
09-Sep-2020 11:19:08.372, 0.7523, 1.0470,-0.0182,-0.4596, 0.4915,-0.8032, 1.5543,-1.1314,-0.3522
09-Sep-2020 11:19:08.382, 0.6388, 1.0312, 0.0031,-0.2853, 0.6540,-0.5065, 1.5690,-1.1395,-0.3415
09-Sep-2020 11:19:08.392, 0.5843, 1.0508,-0.0678,-0.2228, 0.5416,-0.4324, 1.5817,-1.1446,-0.3345
09-Sep-2020 11:19:08.402, 0.6063, 1.1456,-0.0903,-0.2041, 0.2595,-0.4308, 1.5920,-1.1488,-0.3290
09-Sep-2020 11:19:08.412, 0.6104, 1.2291,-0.0816,-0.1354, 0.0952,-0.4402, 1.5992,-1.1530,-0.3240
09-Sep-2020 11:19:08.422, 0.5710, 1.2219,-0.0888, 0.0460, 0.0282,-0.4247, 1.6033,-1.1572,-0.3206
09-Sep-2020 11:19:08.432, 0.5092, 1.1410,-0.0887, 0.3237, 0.0237,-0.3856, 1.6025,-1.1614,-0.3217
09-Sep-2020 11:19:08.442, 0.4544, 1.0346,-0.0338, 0.5893, 0.1582,-0.3269, 1.5956,-1.1652,-0.3297
09-Sep-2020 11:19:08.451, 0.4398, 0.9592, 0.0372, 0.7639, 0.3520,-0.2292, 1.5836,-1.1685,-0.3444
09-Sep-2020 11:19:08.462, 0.4488, 0.9037, 0.1011, 0.8007, 0.5198,-0.0887, 1.5693,-1.1707,-0.3637
09-Sep-2020 11:19:08.471, 0.4563, 0.8833, 0.0826, 0.7286, 0.5773, 0.0916, 1.5556,-1.1714,-0.3842
09-Sep-2020 11:19:08.481, 0.4290, 0.9109, 0.0091, 0.5623, 0.4481, 0.2101, 1.5441,-1.1703,-0.4026
09-Sep-2020 11:19:08.491, 0.4208, 0.9061,-0.0196, 0.4002, 0.3650, 0.3080, 1.5355,-1.1680,-0.4169
09-Sep-2020 11:19:08.501, 0.4225, 0.9142,-0.0754, 0.3271, 0.2589, 0.4059, 1.5299,-1.1647,-0.4269
09-Sep-2020 11:19:08.511, 0.4049, 0.9311,-0.1112, 0.3487, 0.1722, 0.4726, 1.5251,-1.1604,-0.4349
09-Sep-2020 11:19:08.521, 0.3683, 0.9222,-0.0989, 0.4031, 0.0936, 0.4533, 1.5193,-1.1555,-0.4431
09-Sep-2020 11:19:08.531, 0.3470, 0.8898,-0.0625, 0.4530, 0.0615, 0.3688, 1.5117,-1.1508,-0.4525
09-Sep-2020 11:19:08.541, 0.3430, 0.8438,-0.0522, 0.4636,-0.0088, 0.2452, 1.5028,-1.1468,-0.4629
09-Sep-2020 11:19:08.551, 0.3234, 0.7937,-0.0505, 0.4437,-0.1369, 0.0759, 1.4929,-1.1440,-0.4736
09-Sep-2020 11:19:08.561, 0.3049, 0.7388,-0.0466, 0.4021,-0.2787,-0.1099, 1.4819,-1.1428,-0.4841
09-Sep-2020 11:19:08.571, 0.2908, 0.6862,-0.0300, 0.3390,-0.3499,-0.2983, 1.4702,-1.1434,-0.4940
09-Sep-2020 11:19:08.581, 0.2704, 0.6359,-0.0067, 0.2693,-0.2542,-0.4377, 1.4587,-1.1459,-0.5029
09-Sep-2020 11:19:08.591, 0.2474, 0.5876,-0.0033, 0.2054,-0.0584,-0.5380, 1.4492,-1.1498,-0.5107
09-Sep-2020 11:19:08.601, 0.2237, 0.5350,-0.0171, 0.1625, 0.1286,-0.6226, 1.4424,-1.1548,-0.5174
09-Sep-2020 11:19:08.611, 0.1990, 0.4965,-0.0311, 0.1335, 0.2671,-0.7342, 1.4381,-1.1607,-0.5235
09-Sep-2020 11:19:08.621, 0.1705, 0.4739,-0.0447, 0.0915, 0.3275,-0.8951, 1.4353,-1.1677,-0.5294
09-Sep-2020 11:19:08.631, 0.1497, 0.4560,-0.0684, 0.0463, 0.2919,-1.0965, 1.4334,-1.1763,-0.5349
09-Sep-2020 11:19:08.641, 0.1205, 0.4498,-0.0976,-0.0077, 0.1013,-1.3696, 1.4313,-1.1871,-0.5401
09-Sep-2020 11:19:08.650, 0.0805, 0.4484,-0.0987,-0.0511,-0.1333,-1.7251, 1.4276,-1.2005,-0.5453
09-Sep-2020 11:19:08.661, 0.0398, 0.4109,-0.1061,-0.0129,-0.3761,-2.1416, 1.4207,-1.2176,-0.5512
09-Sep-2020 11:19:08.671,-0.1148, 0.8679, 0.4272,-0.4513, 0.0255,-2.9562, 1.4077,-1.2386,-0.5609
09-Sep-2020 11:19:08.681,-0.0058, 0.2986,-0.1720,-0.4459,-0.6222,-3.4178, 1.4012,-1.2673,-0.5658
09-Sep-2020 11:19:08.690, 0.1201, 0.1483,-0.1902,-0.6488,-1.1428,-3.2119, 1.3912,-1.3012,-0.5700
09-Sep-2020 11:19:08.700, 0.1985, 0.1856, 0.2054,-1.2202,-1.7328,-2.4874, 1.3822,-1.3334,-0.5676
09-Sep-2020 11:19:08.710, 0.1346, 0.1368, 0.1266,-1.7429,-2.1159,-1.9896, 1.3965,-1.3600,-0.5355
09-Sep-2020 11:19:08.721, 0.1396, 0.3149,-0.2143,-1.6235,-2.1269,-1.7171, 1.4428,-1.3822,-0.4671
09-Sep-2020 11:19:08.730, 0.1444, 0.6218,-0.1214,-1.5480,-2.0523,-1.5058, 1.5016,-1.4008,-0.3859
09-Sep-2020 11:19:08.740, 0.2221, 1.2269,-0.3333,-1.4374,-2.3624,-1.2769, 1.5714,-1.4163,-0.2942
09-Sep-2020 11:19:08.750, 0.0284, 3.2436,-0.5130,-0.9453,-3.0186,-1.0695, 1.6430,-1.4283,-0.1976
09-Sep-2020 11:19:08.760, 0.3867, 4.9973, 0.5481,-0.7392,-1.1751,-0.6875, 1.6919,-1.4381,-0.1194
09-Sep-2020 11:19:08.772, 0.6026, 4.3995, 0.9399,-0.2976, 1.1160, 0.2720, 1.7401,-1.4433,-0.0559
09-Sep-2020 11:19:08.780, 0.0948, 2.9722,-0.2807, 0.6855, 0.9076, 0.6001, 1.7632,-1.4405,-0.0393
09-Sep-2020 11:19:08.790,-0.0162, 1.6930,-0.3139, 1.3829, 0.3626, 0.6751, 1.7158,-1.4358,-0.0963
09-Sep-2020 11:19:08.800, 0.0323, 0.9312,-0.1013, 1.5940, 0.1851, 0.7911, 1.6179,-1.4303,-0.1989
09-Sep-2020 11:19:08.810, 0.0330, 0.5627,-0.0494, 1.5721, 0.1662, 0.8627, 1.5119,-1.4223,-0.3080
09-Sep-2020 11:19:08.820, 0.0126, 0.4342,-0.0397, 1.4965, 0.1293, 0.8605, 1.4188,-1.4121,-0.4039
09-Sep-2020 11:19:08.830, 0.0165, 0.4684, 0.0009, 1.0701, 0.0816, 0.6715, 1.3430,-1.4010,-0.4820
09-Sep-2020 11:19:08.840, 0.0166, 0.5447, 0.0045, 0.5399,-0.1103, 0.3769, 1.2944,-1.3917,-0.5321
09-Sep-2020 11:19:08.850, 0.0555, 0.6552, 0.0338,-0.1082,-0.3282, 0.0452, 1.2714,-1.3866,-0.5543
09-Sep-2020 11:19:08.860, 0.1500, 0.7644, 0.0200,-0.7176,-0.5558,-0.1706, 1.2742,-1.3863,-0.5481
09-Sep-2020 11:19:08.869, 0.2035, 0.8596,-0.0266,-1.2077,-0.8229,-0.3210, 1.3027,-1.3898,-0.5134
09-Sep-2020 11:19:08.879, 0.2124, 0.9115,-0.0413,-1.4751,-0.9460,-0.4222, 1.3547,-1.3957,-0.4524
09-Sep-2020 11:19:08.889, 0.2185, 0.9945,-0.0787,-0.9120,-1.0269,-0.4756, 1.4204,-1.4023,-0.3761
09-Sep-2020 11:19:08.899, 0.2443, 1.0830,-0.0175, 0.0178,-0.9924,-0.4664, 1.4588,-1.4080,-0.3268
09-Sep-2020 11:19:08.910, 0.2345, 1.0255, 0.0507, 0.4257,-0.7443,-0.4017, 1.4468,-1.4125,-0.3291
09-Sep-2020 11:19:08.919, 0.1972, 0.9761, 0.0775, 0.3456,-0.3202,-0.3209, 1.4112,-1.4158,-0.3579
09-Sep-2020 11:19:08.929, 0.1664, 0.9803, 0.0626, 0.0998, 0.1035,-0.2018, 1.3831,-1.4183,-0.3831
09-Sep-2020 11:19:08.939, 0.0988, 1.0216,-0.0021,-0.1451, 0.3147,-0.1587, 1.3750,-1.4201,-0.3921
09-Sep-2020 11:19:08.949, 0.0499, 0.9796,-0.0676,-0.1851, 0.3705,-0.1643, 1.3845,-1.4218,-0.3857
09-Sep-2020 11:19:08.959, 0.0432, 0.9514,-0.0937,-0.0649, 0.3123,-0.2012, 1.3975,-1.4237,-0.3761
09-Sep-2020 11:19:08.969, 0.0430, 0.9464,-0.1141, 0.1377, 0.2672,-0.2362, 1.4020,-1.4257,-0.3747
09-Sep-2020 11:19:08.979, 0.0523, 0.9627,-0.1219, 0.3529, 0.3305,-0.2860, 1.3923,-1.4277,-0.3873
09-Sep-2020 11:19:08.989, 0.0668, 0.9870,-0.1562, 0.4495, 0.3198,-0.3565, 1.3681,-1.4297,-0.4150
09-Sep-2020 11:19:08.999, 0.0663, 1.0066,-0.1874, 0.4701, 0.2397,-0.4536, 1.3349,-1.4322,-0.4516
09-Sep-2020 11:19:09.009, 0.0572, 1.0108,-0.2067, 0.4784, 0.1098,-0.5654, 1.2960,-1.4353,-0.4933
09-Sep-2020 11:19:09.019, 0.0560, 1.0025,-0.2058, 0.4789,-0.0555,-0.6608, 1.2508,-1.4392,-0.5399
09-Sep-2020 11:19:09.029, 0.0508, 0.9947,-0.1781, 0.4594,-0.1735,-0.6994, 1.1988,-1.4437,-0.5918
09-Sep-2020 11:19:09.039, 0.0402, 0.9860,-0.1484, 0.4339,-0.2072,-0.6992, 1.1420,-1.4482,-0.6474
09-Sep-2020 11:19:09.049, 0.0305, 0.9818,-0.1254, 0.4192,-0.1689,-0.6725, 1.0825,-1.4524,-0.7053
09-Sep-2020 11:19:09.059, 0.0287, 0.9853,-0.1020, 0.4308,-0.0963,-0.6256, 1.0214,-1.4561,-0.7651
09-Sep-2020 11:19:09.069, 0.0239, 0.9926,-0.0867, 0.4743,-0.0096,-0.5631, 0.9589,-1.4588,-0.8270
09-Sep-2020 11:19:09.079, 0.0155, 1.0189,-0.0619, 0.5681, 0.0181,-0.4999, 0.8946,-1.4604,-0.8916
09-Sep-2020 11:19:09.089, 0.0329, 1.0317, 0.0197, 0.6003,-0.0067,-0.4161, 0.8273,-1.4604,-0.9595
09-Sep-2020 11:19:09.098, 0.0498, 1.0182, 0.1240, 0.4685,-0.1125,-0.3200, 0.7638,-1.4592,-1.0232
09-Sep-2020 11:19:09.108, 0.0575, 1.0398, 0.1850, 0.1972,-0.2787,-0.2497, 0.7147,-1.4579,-1.0715
09-Sep-2020 11:19:09.119, 0.0711, 1.0828, 0.1516,-0.0719,-0.4625,-0.2071, 0.6843,-1.4579,-1.0993
09-Sep-2020 11:19:09.128, 0.0828, 1.1052, 0.0616,-0.2076,-0.6098,-0.1815, 0.6691,-1.4596,-1.1099
09-Sep-2020 11:19:09.138, 0.0936, 1.0833,-0.0099,-0.2321,-0.6833,-0.1465, 0.6618,-1.4622,-1.1112
09-Sep-2020 11:19:09.148, 0.1010, 1.0317,-0.0427,-0.2336,-0.6842,-0.0886, 0.6579,-1.4648,-1.1083
09-Sep-2020 11:19:09.158, 0.1063, 0.9786,-0.0659,-0.2386,-0.6425,-0.0439, 0.6583,-1.4672,-1.1011
09-Sep-2020 11:19:09.168, 0.1203, 0.9504,-0.0768,-0.2534,-0.5620,-0.0020, 0.6631,-1.4692,-1.0898
09-Sep-2020 11:19:09.178, 0.1369, 0.9486,-0.0843,-0.2858,-0.4584, 0.0364, 0.6732,-1.4712,-1.0741
09-Sep-2020 11:19:09.188, 0.1519, 0.9547,-0.0971,-0.2997,-0.3556, 0.0660, 0.6897,-1.4731,-1.0529
09-Sep-2020 11:19:09.198, 0.1649, 0.9604,-0.1102,-0.2806,-0.2727, 0.0899, 0.7113,-1.4748,-1.0276
09-Sep-2020 11:19:09.208, 0.1731, 0.9548,-0.1224,-0.2260,-0.2088, 0.1048, 0.7350,-1.4762,-1.0010
09-Sep-2020 11:19:09.218, 0.1808, 0.9701,-0.1228,-0.1498,-0.1620, 0.1077, 0.7572,-1.4771,-0.9766
09-Sep-2020 11:19:09.228, 0.1863, 0.9792,-0.1188,-0.0660,-0.1043, 0.0947, 0.7749,-1.4774,-0.9572
09-Sep-2020 11:19:09.238, 0.1852, 0.9845,-0.1152, 0.0085,-0.0270, 0.0615, 0.7861,-1.4771,-0.9449
09-Sep-2020 11:19:09.248, 0.1814, 0.9916,-0.1067, 0.0635, 0.0573, 0.0107, 0.7900,-1.4766,-0.9407
09-Sep-2020 11:19:09.258, 0.1722, 0.9934,-0.1047, 0.0995, 0.1269,-0.0497, 0.7870,-1.4760,-0.9443
09-Sep-2020 11:19:09.268, 0.1701, 0.9914,-0.1025, 0.1244, 0.1716,-0.1052, 0.7776,-1.4755,-0.9550
09-Sep-2020 11:19:09.278, 0.1637, 0.9844,-0.1010, 0.1550, 0.1797,-0.1555, 0.7626,-1.4753,-0.9717
09-Sep-2020 11:19:09.287, 0.1549, 0.9792,-0.0959, 0.1964, 0.1722,-0.1552, 0.7421,-1.4751,-0.9941
09-Sep-2020 11:19:09.298, 0.1373, 0.9824,-0.0888, 0.2272, 0.1371,-0.1283, 0.7187,-1.4746,-1.0193
09-Sep-2020 11:19:09.308, 0.1146, 0.9856,-0.0842, 0.2507, 0.0749,-0.1034, 0.6951,-1.4737,-1.0443
09-Sep-2020 11:19:09.317, 0.0923, 0.9947,-0.0764, 0.2463, 0.0044,-0.0970, 0.6720,-1.4723,-1.0683
09-Sep-2020 11:19:09.328, 0.0696, 0.9970,-0.0639, 0.2184,-0.0727,-0.1121, 0.6495,-1.4709,-1.0909
09-Sep-2020 11:19:09.338, 0.0490, 0.9963,-0.0449, 0.1587,-0.1470,-0.1308, 0.6275,-1.4698,-1.1123
09-Sep-2020 11:19:09.347, 0.0260, 0.9966,-0.0221, 0.0733,-0.2097,-0.1519, 0.6070,-1.4692,-1.1314
09-Sep-2020 11:19:09.357, 0.0052, 0.9876,-0.0214,-0.0110,-0.2758,-0.1821, 0.5921,-1.4690,-1.1443
09-Sep-2020 11:19:09.367,-0.0069, 0.9815,-0.0350,-0.0524,-0.3518,-0.2027, 0.5781,-1.4697,-1.1557
09-Sep-2020 11:19:09.378, 0.0005, 0.9869,-0.0477,-0.0702,-0.3981,-0.1998, 0.5622,-1.4711,-1.1682
09-Sep-2020 11:19:09.387, 0.0100, 0.9997,-0.0540,-0.0947,-0.4018,-0.1656, 0.5465,-1.4726,-1.1799
09-Sep-2020 11:19:09.397, 0.0204, 1.0134,-0.0530,-0.1392,-0.3539,-0.1129, 0.5345,-1.4741,-1.1880
09-Sep-2020 11:19:09.407, 0.0306, 1.0194,-0.0571,-0.2032,-0.2446,-0.0671, 0.5288,-1.4758,-1.1903
09-Sep-2020 11:19:09.417, 0.0391, 1.0232,-0.0698,-0.2633,-0.1144,-0.0560, 0.5313,-1.4778,-1.1853
09-Sep-2020 11:19:09.427, 0.0555, 1.0254,-0.0835,-0.2853, 0.0251,-0.0799, 0.5396,-1.4803,-1.1758
09-Sep-2020 11:19:09.437, 0.0714, 1.0248,-0.0959,-0.2437, 0.1609,-0.1003, 0.5490,-1.4830,-1.1666
09-Sep-2020 11:19:09.447, 0.0890, 1.0215,-0.1002,-0.1839, 0.2904,-0.1070, 0.5559,-1.4855,-1.1613
09-Sep-2020 11:19:09.457, 0.1001, 1.0165,-0.1042,-0.1730, 0.3636,-0.0842, 0.5605,-1.4876,-1.1595
09-Sep-2020 11:19:09.467, 0.0990, 0.9956,-0.1091,-0.1978, 0.3863,-0.0611, 0.5673,-1.4895,-1.1562
09-Sep-2020 11:19:09.476, 0.0866, 0.9536,-0.1291,-0.2186, 0.3126,-0.0394, 0.5786,-1.4914,-1.1487
09-Sep-2020 11:19:09.486, 0.0683, 0.9286,-0.1504,-0.1394, 0.1637, 0.0031, 0.5931,-1.4933,-1.1372
09-Sep-2020 11:19:09.497, 0.0437, 0.9598,-0.1498, 0.0637, 0.0232, 0.0361, 0.6049,-1.4943,-1.1270
09-Sep-2020 11:19:09.506, 0.0226, 1.0114,-0.1156, 0.2192,-0.0609, 0.0305, 0.6048,-1.4935,-1.1273
09-Sep-2020 11:19:09.516, 0.0090, 1.0265,-0.0861, 0.2526,-0.0668, 0.0010, 0.5926,-1.4916,-1.1390
09-Sep-2020 11:19:09.526, 0.0007, 1.0101,-0.0771, 0.1943,-0.0522,-0.0251, 0.5756,-1.4894,-1.1553
09-Sep-2020 11:19:09.537,-0.0067, 0.9896,-0.0861, 0.1157,-0.0499,-0.0258, 0.5607,-1.4879,-1.1698
09-Sep-2020 11:19:09.546,-0.0134, 0.9815,-0.0930, 0.0759,-0.0663,-0.0065, 0.5508,-1.4869,-1.1792
09-Sep-2020 11:19:09.556,-0.0136, 0.9912,-0.0916, 0.0981,-0.0865, 0.0127, 0.5451,-1.4862,-1.1843
09-Sep-2020 11:19:09.566,-0.0014, 1.0055,-0.0786, 0.1276,-0.0903,-0.0028, 0.5397,-1.4853,-1.1888
09-Sep-2020 11:19:09.576, 0.0211, 1.0030,-0.0613, 0.1348,-0.0680,-0.0264, 0.5313,-1.4840,-1.1963
09-Sep-2020 11:19:09.586, 0.0454, 0.9954,-0.0487, 0.1000,-0.0331,-0.0359, 0.5204,-1.4828,-1.2066
09-Sep-2020 11:19:09.596, 0.0641, 0.9893,-0.0448, 0.0289,-0.0102,-0.0218, 0.5112,-1.4820,-1.2155
09-Sep-2020 11:19:09.606, 0.0735, 0.9893,-0.0532,-0.0194, 0.0019,-0.0055, 0.5071,-1.4818,-1.2194
09-Sep-2020 11:19:09.616, 0.0775, 0.9922,-0.0632,-0.0530, 0.0011, 0.0052, 0.5073,-1.4819,-1.2192
09-Sep-2020 11:19:09.626, 0.0746, 0.9917,-0.0736,-0.0708,-0.0027, 0.0178, 0.5103,-1.4823,-1.2162
09-Sep-2020 11:19:09.637, 0.0680, 0.9938,-0.0826,-0.0785,-0.0097, 0.0305, 0.5155,-1.4827,-1.2109
09-Sep-2020 11:19:09.646, 0.0575, 1.0016,-0.0842,-0.0788,-0.0160, 0.0414, 0.5224,-1.4832,-1.2039
09-Sep-2020 11:19:09.656, 0.0416, 1.0103,-0.0847,-0.0815,-0.0133, 0.0507, 0.5306,-1.4836,-1.1955
09-Sep-2020 11:19:09.666, 0.0276, 1.0083,-0.0888,-0.0685,-0.0287, 0.0554, 0.5402,-1.4840,-1.1857
09-Sep-2020 11:19:09.676, 0.0175, 0.9995,-0.0892,-0.0661,-0.0578, 0.0594, 0.5500,-1.4843,-1.1756
09-Sep-2020 11:19:09.686, 0.0083, 0.9902,-0.0898,-0.0693,-0.0853, 0.0610, 0.5601,-1.4845,-1.1648
09-Sep-2020 11:19:09.696, 0.0036, 0.9866,-0.0914,-0.0641,-0.1017, 0.0620, 0.5703,-1.4847,-1.1537
09-Sep-2020 11:19:09.706,-0.0034, 0.9844,-0.0896,-0.0636,-0.0982, 0.0554, 0.5802,-1.4848,-1.1427
09-Sep-2020 11:19:09.716,-0.0079, 0.9886,-0.0910,-0.0469,-0.0654, 0.0511, 0.5894,-1.4849,-1.1325
09-Sep-2020 11:19:09.726,-0.0110, 0.9967,-0.0920,-0.0208,-0.0246, 0.0399, 0.5970,-1.4849,-1.1243
09-Sep-2020 11:19:09.736,-0.0161, 0.9997,-0.0903, 0.0040, 0.0161, 0.0287, 0.6020,-1.4847,-1.1190
09-Sep-2020 11:19:09.746,-0.0246, 0.9979,-0.0866, 0.0205, 0.0491, 0.0160, 0.6048,-1.4844,-1.1163
09-Sep-2020 11:19:09.755,-0.0311, 0.9930,-0.0855, 0.0270, 0.0513, 0.0001, 0.6053,-1.4841,-1.1162
09-Sep-2020 11:19:09.765,-0.0332, 0.9877,-0.0826, 0.0235, 0.0326,-0.0094, 0.6039,-1.4838,-1.1181
09-Sep-2020 11:19:09.776,-0.0304, 0.9870,-0.0791, 0.0101, 0.0031,-0.0075, 0.6016,-1.4836,-1.1208
09-Sep-2020 11:19:09.785,-0.0233, 0.9890,-0.0736,-0.0121,-0.0291, 0.0068, 0.6000,-1.4835,-1.1224
09-Sep-2020 11:19:09.796,-0.0142, 0.9934,-0.0709,-0.0305,-0.0551, 0.0221, 0.6008,-1.4835,-1.1213
09-Sep-2020 11:19:09.805,-0.0030, 1.0012,-0.0652,-0.0356,-0.0611, 0.0214, 0.6036,-1.4836,-1.1179
09-Sep-2020 11:19:09.815, 0.0083, 1.0044,-0.0622,-0.0351,-0.0560, 0.0131, 0.6066,-1.4837,-1.1143
09-Sep-2020 11:19:09.825, 0.0148, 1.0065,-0.0618,-0.0345,-0.0411, 0.0175, 0.6091,-1.4839,-1.1113
09-Sep-2020 11:19:09.835, 0.0163, 0.9983,-0.0680,-0.0377,-0.0318, 0.0226, 0.6120,-1.4840,-1.1079
09-Sep-2020 11:19:09.845, 0.0141, 0.9895,-0.0737,-0.0424,-0.0274, 0.0330, 0.6156,-1.4842,-1.1039
09-Sep-2020 11:19:09.857, 0.0108, 0.9854,-0.0777,-0.0415,-0.0308, 0.0395, 0.6202,-1.4843,-1.0989
09-Sep-2020 11:19:09.865, 0.0065, 0.9895,-0.0762,-0.0423,-0.0323, 0.0531, 0.6256,-1.4844,-1.0933
09-Sep-2020 11:19:09.875,-0.0006, 0.9992,-0.0751,-0.0792,-0.0521, 0.0596, 0.6324,-1.4844,-1.0861
09-Sep-2020 11:19:09.884,-0.0032, 0.9965,-0.0799,-0.0997,-0.0831, 0.0688, 0.6422,-1.4847,-1.0757
09-Sep-2020 11:19:09.895, 0.0017, 0.9945,-0.0804,-0.0808,-0.0975, 0.0669, 0.6540,-1.4850,-1.0630
09-Sep-2020 11:19:09.904, 0.0055, 0.9914,-0.0791,-0.0389,-0.0969, 0.0811, 0.6648,-1.4852,-1.0512
09-Sep-2020 11:19:09.914,-0.0033, 0.9949,-0.0728,-0.0217,-0.1024, 0.0991, 0.6740,-1.4849,-1.0410
09-Sep-2020 11:19:09.924,-0.0150, 0.9967,-0.0734,-0.0338,-0.1272, 0.1062, 0.6835,-1.4845,-1.0304
09-Sep-2020 11:19:09.935,-0.0201, 1.0004,-0.0760,-0.0554,-0.1676, 0.1011, 0.6940,-1.4840,-1.0185
09-Sep-2020 11:19:09.944,-0.0117, 1.0033,-0.0751,-0.0730,-0.2037, 0.0975, 0.7050,-1.4837,-1.0058
09-Sep-2020 11:19:09.955, 0.0053, 0.9998,-0.0712,-0.0890,-0.2321, 0.1021, 0.7165,-1.4836,-0.9923
09-Sep-2020 11:19:09.964, 0.0237, 0.9943,-0.0692,-0.1006,-0.2505, 0.1023, 0.7291,-1.4835,-0.9773
09-Sep-2020 11:19:09.974, 0.0407, 0.9924,-0.0679,-0.1032,-0.2484, 0.1076, 0.7423,-1.4835,-0.9615
09-Sep-2020 11:19:09.984, 0.0535, 0.9935,-0.0641,-0.1087,-0.2200, 0.1078, 0.7561,-1.4835,-0.9451
09-Sep-2020 11:19:09.994, 0.0639, 0.9929,-0.0630,-0.1094,-0.1681, 0.1075, 0.7708,-1.4835,-0.9282
09-Sep-2020 11:19:10.004, 0.0723, 0.9921,-0.0651,-0.1061,-0.1078, 0.1095, 0.7860,-1.4835,-0.9112
09-Sep-2020 11:19:10.014, 0.0827, 0.9897,-0.0656,-0.1014,-0.0311, 0.0981, 0.8013,-1.4835,-0.8948
09-Sep-2020 11:19:10.024, 0.0927, 0.9875,-0.0748,-0.0760, 0.0261, 0.0840, 0.8160,-1.4834,-0.8797
09-Sep-2020 11:19:10.034, 0.1075, 0.9932,-0.0773,-0.0283, 0.0615, 0.0803, 0.8282,-1.4833,-0.8677
09-Sep-2020 11:19:10.044, 0.1109, 0.9840,-0.0603, 0.0140, 0.0671, 0.0880, 0.8367,-1.4829,-0.8598
09-Sep-2020 11:19:10.054, 0.1097, 0.9854,-0.0467, 0.0167, 0.0841, 0.0873, 0.8425,-1.4821,-0.8546
09-Sep-2020 11:19:10.064, 0.1111, 0.9919,-0.0253,-0.0133, 0.1287, 0.0722, 0.8482,-1.4813,-0.8498
09-Sep-2020 11:19:10.074, 0.1133, 0.9871,-0.0286,-0.0596, 0.1915, 0.0304, 0.8558,-1.4808,-0.8434
09-Sep-2020 11:19:10.084, 0.1031, 0.9675,-0.0614,-0.0362, 0.1977, 0.0213, 0.8646,-1.4808,-0.8364
09-Sep-2020 11:19:10.094, 0.0916, 0.9780,-0.0620, 0.0029, 0.1508, 0.0445, 0.8710,-1.4808,-0.8318
09-Sep-2020 11:19:10.104, 0.0784, 0.9923,-0.0435,-0.0185, 0.1033, 0.0368, 0.8757,-1.4804,-0.8286
09-Sep-2020 11:19:10.114, 0.0754, 1.0016,-0.0372,-0.0543, 0.0772, 0.0318, 0.8812,-1.4801,-0.8242
09-Sep-2020 11:19:10.124, 0.0712, 1.0028,-0.0488,-0.0774, 0.0743, 0.0273, 0.8890,-1.4800,-0.8172
09-Sep-2020 11:19:10.134, 0.0649, 1.0013,-0.0615,-0.0543, 0.0462, 0.0326, 0.8984,-1.4801,-0.8085
09-Sep-2020 11:19:10.144, 0.0730, 1.0052,-0.0503,-0.0576, 0.0523, 0.0189, 0.9064,-1.4801,-0.8008
09-Sep-2020 11:19:10.154, 0.0834, 0.9962,-0.0434,-0.0672, 0.0941, 0.0062, 0.9140,-1.4803,-0.7938
09-Sep-2020 11:19:10.164, 0.0965, 0.9867,-0.0490,-0.0585, 0.1585, 0.0088, 0.9220,-1.4805,-0.7867
09-Sep-2020 11:19:10.173, 0.1046, 0.9914,-0.0540,-0.0473, 0.2101, 0.0092, 0.9295,-1.4806,-0.7807
09-Sep-2020 11:19:10.183, 0.1118, 0.9974,-0.0565,-0.0346, 0.2597, 0.0051, 0.9364,-1.4807,-0.7759
09-Sep-2020 11:19:10.193, 0.1204, 0.9965,-0.0585,-0.0269, 0.3055, 0.0021, 0.9426,-1.4808,-0.7723
09-Sep-2020 11:19:10.203, 0.1290, 0.9895,-0.0595,-0.0104, 0.3395, 0.0122, 0.9484,-1.4809,-0.7695
09-Sep-2020 11:19:10.213, 0.1324, 0.9821,-0.0587, 0.0046, 0.3529, 0.0190, 0.9536,-1.4807,-0.7676
09-Sep-2020 11:19:10.223, 0.1367, 0.9819,-0.0559, 0.0082, 0.3544, 0.0173, 0.9578,-1.4805,-0.7669
09-Sep-2020 11:19:10.233, 0.1427, 0.9879,-0.0505,-0.0028, 0.3593, 0.0102, 0.9618,-1.4802,-0.7664
09-Sep-2020 11:19:10.243, 0.1452, 0.9902,-0.0526,-0.0122, 0.3600, 0.0204, 0.9666,-1.4801,-0.7651
09-Sep-2020 11:19:10.253, 0.1396, 0.9814,-0.0533,-0.0171, 0.3352, 0.0253, 0.9728,-1.4799,-0.7625
09-Sep-2020 11:19:10.263, 0.1332, 0.9834,-0.0509,-0.0251, 0.3192, 0.0233, 0.9793,-1.4796,-0.7593
09-Sep-2020 11:19:10.273, 0.1328, 0.9933,-0.0512,-0.0371, 0.3305, 0.0230, 0.9864,-1.4794,-0.7553
09-Sep-2020 11:19:10.283, 0.1262, 0.9922,-0.0554,-0.0389, 0.3633, 0.0379, 0.9947,-1.4793,-0.7504
09-Sep-2020 11:19:10.293, 0.1019, 0.9764,-0.0630,-0.0297, 0.3603, 0.0389, 1.0042,-1.4790,-0.7445
09-Sep-2020 11:19:10.303, 0.0775, 0.9699,-0.0658,-0.0307, 0.3271, 0.0342, 1.0129,-1.4788,-0.7392
09-Sep-2020 11:19:10.313, 0.0656, 0.9808,-0.0690,-0.0320, 0.2729, 0.0356, 1.0209,-1.4786,-0.7344
09-Sep-2020 11:19:10.323, 0.0642, 1.0046,-0.0697,-0.0410, 0.2229, 0.0584, 1.0287,-1.4783,-0.7293
09-Sep-2020 11:19:10.333, 0.0672, 1.0371,-0.0622,-0.0595, 0.2114, 0.0980, 1.0381,-1.4780,-0.7221
09-Sep-2020 11:19:10.343, 0.0620, 1.0503,-0.0606,-0.0628, 0.2394, 0.1283, 1.0509,-1.4773,-0.7114
09-Sep-2020 11:19:10.352, 0.0597, 1.0274,-0.0556,-0.0502, 0.2752, 0.1127, 1.0656,-1.4765,-0.6990
09-Sep-2020 11:19:10.362, 0.0648, 0.9929,-0.0511,-0.0381, 0.3263, 0.0916, 1.0788,-1.4757,-0.6885
09-Sep-2020 11:19:10.373, 0.0631, 0.9672,-0.0554,-0.0253, 0.3548, 0.0962, 1.0901,-1.4749,-0.6803
09-Sep-2020 11:19:10.382, 0.0511, 0.9501,-0.0610,-0.0357, 0.3349, 0.1050, 1.1007,-1.4741,-0.6733
09-Sep-2020 11:19:10.392, 0.0364, 0.9560,-0.0691,-0.0412, 0.2763, 0.0978, 1.1119,-1.4733,-0.6653
09-Sep-2020 11:19:10.402, 0.0284, 0.9880,-0.0709,-0.0371, 0.1905, 0.1030, 1.1228,-1.4725,-0.6571
09-Sep-2020 11:19:10.412, 0.0289, 1.0042,-0.0603,-0.0540, 0.1103, 0.1151, 1.1327,-1.4716,-0.6491
09-Sep-2020 11:19:10.423, 0.0324, 1.0043,-0.0493,-0.0765, 0.0532, 0.1290, 1.1434,-1.4707,-0.6394
09-Sep-2020 11:19:10.432, 0.0406, 1.0012,-0.0481,-0.0958, 0.0003, 0.1120, 1.1557,-1.4698,-0.6275
09-Sep-2020 11:19:10.442, 0.0516, 1.0067,-0.0580,-0.0934,-0.0638, 0.0944, 1.1684,-1.4691,-0.6148
09-Sep-2020 11:19:10.452, 0.0693, 0.9997,-0.0529,-0.0843,-0.1089, 0.0811, 1.1796,-1.4685,-0.6029
09-Sep-2020 11:19:10.462, 0.0952, 0.9787,-0.0373,-0.0792,-0.0676, 0.0629, 1.1890,-1.4680,-0.5924
09-Sep-2020 11:19:10.473, 0.1159, 0.9692,-0.0338,-0.0750, 0.0181, 0.0434, 1.1970,-1.4677,-0.5836
09-Sep-2020 11:19:10.482, 0.1277, 0.9689,-0.0429,-0.0578, 0.1255, 0.0329, 1.2045,-1.4675,-0.5763
09-Sep-2020 11:19:10.492, 0.1371, 0.9745,-0.0486,-0.0174, 0.2135, 0.0290, 1.2109,-1.4674,-0.5711
09-Sep-2020 11:19:10.502, 0.1383, 0.9825,-0.0452, 0.0126, 0.2641, 0.0340, 1.2149,-1.4672,-0.5692
09-Sep-2020 11:19:10.512, 0.1323, 0.9839,-0.0334, 0.0196, 0.2631, 0.0348, 1.2170,-1.4668,-0.5697
09-Sep-2020 11:19:10.522, 0.1221, 0.9864,-0.0194, 0.0001, 0.2273, 0.0346, 1.2186,-1.4664,-0.5706
09-Sep-2020 11:19:10.532, 0.1138, 0.9913,-0.0134,-0.0397, 0.1804, 0.0264, 1.2215,-1.4661,-0.5700
09-Sep-2020 11:19:10.541, 0.1060, 0.9922,-0.0173,-0.0668, 0.1329, 0.0208, 1.2270,-1.4659,-0.5662
09-Sep-2020 11:19:10.551, 0.1006, 0.9913,-0.0276,-0.0759, 0.1012, 0.0084, 1.2345,-1.4658,-0.5600
09-Sep-2020 11:19:10.561, 0.1014, 0.9861,-0.0349,-0.0722, 0.0961,-0.0029, 1.2423,-1.4659,-0.5532
09-Sep-2020 11:19:10.572, 0.1074, 0.9832,-0.0411,-0.0615, 0.1171,-0.0162, 1.2493,-1.4660,-0.5470
09-Sep-2020 11:19:10.581, 0.1159, 0.9824,-0.0467,-0.0461, 0.1541,-0.0290, 1.2553,-1.4662,-0.5422
09-Sep-2020 11:19:10.591, 0.1219, 0.9841,-0.0506,-0.0269, 0.1993,-0.0389, 1.2598,-1.4665,-0.5392
09-Sep-2020 11:19:10.601, 0.1249, 0.9826,-0.0508,-0.0150, 0.2270,-0.0450, 1.2631,-1.4668,-0.5378
09-Sep-2020 11:19:10.611, 0.1259, 0.9821,-0.0443,-0.0136, 0.2391,-0.0493, 1.2656,-1.4672,-0.5376
09-Sep-2020 11:19:10.621, 0.1287, 0.9840,-0.0376,-0.0084, 0.2270,-0.0594, 1.2677,-1.4676,-0.5378
09-Sep-2020 11:19:10.631, 0.1300, 0.9897,-0.0301,-0.0067, 0.2072,-0.0664, 1.2691,-1.4681,-0.5387
09-Sep-2020 11:19:10.641, 0.1299, 0.9944,-0.0247,-0.0104, 0.1914,-0.0682, 1.2698,-1.4687,-0.5400
09-Sep-2020 11:19:10.651, 0.1261, 0.9946,-0.0269,-0.0134, 0.1930,-0.0613, 1.2706,-1.4692,-0.5412
09-Sep-2020 11:19:10.661, 0.1169, 0.9959,-0.0304,-0.0150, 0.1945,-0.0611, 1.2716,-1.4698,-0.5421
09-Sep-2020 11:19:10.671, 0.1061, 0.9964,-0.0281,-0.0084, 0.2019,-0.0619, 1.2726,-1.4703,-0.5430
09-Sep-2020 11:19:10.681, 0.0976, 0.9918,-0.0250,-0.0059, 0.2142,-0.0688, 1.2732,-1.4708,-0.5444
09-Sep-2020 11:19:10.691, 0.0876, 0.9833,-0.0183,-0.0017, 0.2181,-0.0786, 1.2735,-1.4713,-0.5462
09-Sep-2020 11:19:10.701, 0.0815, 0.9806,-0.0135,-0.0098, 0.2157,-0.0852, 1.2733,-1.4720,-0.5486
09-Sep-2020 11:19:10.711, 0.0783, 0.9833,-0.0098,-0.0168, 0.2024,-0.0921, 1.2737,-1.4727,-0.5503
09-Sep-2020 11:19:10.721, 0.0748, 0.9903,-0.0115,-0.0263, 0.1705,-0.1052, 1.2746,-1.4735,-0.5514
09-Sep-2020 11:19:10.731, 0.0716, 0.9993,-0.0130,-0.0399, 0.1301,-0.1095, 1.2758,-1.4745,-0.5519
09-Sep-2020 11:19:10.741, 0.0661, 1.0081,-0.0172,-0.0537, 0.0821,-0.1185, 1.2777,-1.4755,-0.5513
09-Sep-2020 11:19:10.751, 0.0597, 1.0164,-0.0260,-0.0676, 0.0272,-0.1235, 1.2802,-1.4767,-0.5495
09-Sep-2020 11:19:10.760, 0.0537, 1.0184,-0.0375,-0.0759,-0.0338,-0.1272, 1.2835,-1.4780,-0.5465
09-Sep-2020 11:19:10.770, 0.0495, 1.0134,-0.0466,-0.0737,-0.0991,-0.1302, 1.2868,-1.4793,-0.5428
09-Sep-2020 11:19:10.781, 0.0517, 1.0077,-0.0509,-0.0762,-0.1673,-0.1262, 1.2895,-1.4806,-0.5391
09-Sep-2020 11:19:10.790, 0.0586, 1.0045,-0.0499,-0.0854,-0.2276,-0.1192, 1.2922,-1.4820,-0.5347
09-Sep-2020 11:19:10.800, 0.0675, 1.0007,-0.0450,-0.0988,-0.2829,-0.1159, 1.2955,-1.4833,-0.5291
09-Sep-2020 11:19:10.810, 0.0773, 0.9991,-0.0379,-0.1065,-0.3209,-0.1144, 1.2998,-1.4846,-0.5219
09-Sep-2020 11:19:10.820, 0.0860, 0.9960,-0.0323,-0.1166,-0.3396,-0.1176, 1.3048,-1.4859,-0.5137
09-Sep-2020 11:19:10.831, 0.0929, 0.9922,-0.0312,-0.1251,-0.3441,-0.1246, 1.3107,-1.4873,-0.5044
09-Sep-2020 11:19:10.840, 0.0990, 0.9908,-0.0311,-0.1332,-0.3367,-0.1312, 1.3175,-1.4887,-0.4941
09-Sep-2020 11:19:10.850, 0.1030, 0.9903,-0.0342,-0.1408,-0.3240,-0.1380, 1.3252,-1.4903,-0.4830
09-Sep-2020 11:19:10.860, 0.1061, 0.9902,-0.0368,-0.1352,-0.3079,-0.1502, 1.3338,-1.4919,-0.4711
09-Sep-2020 11:19:10.870, 0.1078, 0.9917,-0.0391,-0.1328,-0.2839,-0.1564, 1.3422,-1.4936,-0.4596
09-Sep-2020 11:19:10.880, 0.1093, 0.9907,-0.0413,-0.1222,-0.2617,-0.1638, 1.3513,-1.4953,-0.4477
09-Sep-2020 11:19:10.890, 0.1096, 0.9907,-0.0437,-0.1140,-0.2417,-0.1700, 1.3597,-1.4971,-0.4367
09-Sep-2020 11:19:10.900, 0.1073, 0.9872,-0.0474,-0.1105,-0.2241,-0.1805, 1.3675,-1.4989,-0.4264
09-Sep-2020 11:19:10.910, 0.1021, 0.9808,-0.0473,-0.1043,-0.2045,-0.1961, 1.3750,-1.5008,-0.4166
09-Sep-2020 11:19:10.920, 0.0998, 0.9777,-0.0471,-0.0989,-0.1880,-0.2127, 1.3820,-1.5028,-0.4075
09-Sep-2020 11:19:10.930, 0.0994, 0.9828,-0.0459,-0.0875,-0.1745,-0.2302, 1.3884,-1.5050,-0.3993
09-Sep-2020 11:19:10.940, 0.0987, 0.9886,-0.0416,-0.0759,-0.1632,-0.2476, 1.3932,-1.5074,-0.3927
09-Sep-2020 11:19:10.949, 0.0974, 0.9943,-0.0363,-0.0627,-0.1517,-0.2650, 1.3963,-1.5098,-0.3880
09-Sep-2020 11:19:10.959, 0.0993, 0.9954,-0.0327,-0.0540,-0.1385,-0.2843, 1.3971,-1.5125,-0.3857
09-Sep-2020 11:19:10.969, 0.1027, 0.9927,-0.0305,-0.0571,-0.1216,-0.3007, 1.3962,-1.5153,-0.3852
09-Sep-2020 11:19:10.979, 0.1073, 0.9895,-0.0304,-0.0570,-0.1025,-0.3158, 1.3949,-1.5183,-0.3852
09-Sep-2020 11:19:10.990, 0.1117, 0.9858,-0.0324,-0.0510,-0.0802,-0.3226, 1.3934,-1.5214,-0.3857
09-Sep-2020 11:19:10.999, 0.1125, 0.9851,-0.0332,-0.0421,-0.0540,-0.3281, 1.3908,-1.5245,-0.3875
09-Sep-2020 11:19:11.010, 0.1096, 0.9866,-0.0310,-0.0341,-0.0364,-0.3297, 1.3860,-1.5277,-0.3917
09-Sep-2020 11:19:11.019, 0.1061, 0.9892,-0.0267,-0.0299,-0.0278,-0.3352, 1.3783,-1.5310,-0.3991
09-Sep-2020 11:19:11.029, 0.1021, 0.9931,-0.0236,-0.0313,-0.0276,-0.3401, 1.3678,-1.5342,-0.4092
09-Sep-2020 11:19:11.039, 0.0978, 0.9951,-0.0204,-0.0358,-0.0349,-0.3408, 1.3557,-1.5375,-0.4211
09-Sep-2020 11:19:11.049, 0.0951, 0.9966,-0.0151,-0.0440,-0.0465,-0.3380, 1.3423,-1.5409,-0.4342
09-Sep-2020 11:19:11.059, 0.0908, 0.9942,-0.0108,-0.0468,-0.0663,-0.3342, 1.3284,-1.5441,-0.4476
09-Sep-2020 11:19:11.069, 0.0875, 0.9936,-0.0089,-0.0500,-0.0861,-0.3263, 1.3123,-1.5474,-0.4630
09-Sep-2020 11:19:11.079, 0.0862, 0.9933,-0.0039,-0.0513,-0.1002,-0.3160, 1.2933,-1.5506,-0.4812
09-Sep-2020 11:19:11.089, 0.0881, 0.9967,-0.0016,-0.0557,-0.1133,-0.3016, 1.2698,-1.5536,-0.5037
09-Sep-2020 11:19:11.099, 0.0948, 1.0071,-0.0071,-0.0535,-0.1271,-0.2928, 1.2410,-1.5566,-0.5313
09-Sep-2020 11:19:11.109, 0.1039, 1.0144,-0.0143,-0.0527,-0.1491,-0.2834, 1.1996,-1.5594,-0.5714
09-Sep-2020 11:19:11.119, 0.1136, 1.0165,-0.0189,-0.0526,-0.1703,-0.2708, 1.1349,-1.5622,-0.6346
09-Sep-2020 11:19:11.129, 0.1190, 1.0176,-0.0141,-0.0536,-0.1657,-0.2566, 1.0228,-1.5647,-0.7451
09-Sep-2020 11:19:11.139, 0.1195, 1.0163,-0.0055,-0.0589,-0.1318,-0.2286, 0.7942,-1.5670,-0.9720
09-Sep-2020 11:19:11.149, 0.1180, 1.0133, 0.0031,-0.0652,-0.0846,-0.2050, 0.2319,-1.5686,-1.5329
09-Sep-2020 11:19:11.158, 0.1152, 1.0089, 0.0121,-0.0648,-0.0454,-0.1779,-0.7691,-1.5686,-2.5332
09-Sep-2020 11:19:11.168, 0.1129, 1.0001, 0.0240,-0.0616,-0.0142,-0.1464,-1.2885,-1.5675,-3.0521
09-Sep-2020 11:19:11.178, 0.1037, 0.9900, 0.0353,-0.0506,-0.0130,-0.1133,-1.4923,-1.5662, 3.0275
09-Sep-2020 11:19:11.188, 0.0880, 0.9878, 0.0446,-0.0469,-0.0303,-0.0943,-1.5907,-1.5652, 2.9292
09-Sep-2020 11:19:11.199, 0.0725, 0.9902, 0.0556,-0.0460,-0.0640,-0.0780,-1.6536,-1.5643, 2.8667
09-Sep-2020 11:19:11.208, 0.0577, 0.9990, 0.0684,-0.0508,-0.1016,-0.0627,-1.7035,-1.5635, 2.8174
09-Sep-2020 11:19:11.218, 0.0430, 1.0106, 0.0792,-0.0591,-0.1600,-0.0537,-1.7552,-1.5636, 2.7667
09-Sep-2020 11:19:11.228, 0.0326, 1.0196, 0.0916,-0.0775,-0.2504,-0.0327,-1.8285,-1.5636, 2.6951
09-Sep-2020 11:19:11.238, 0.0242, 1.0288, 0.1075,-0.0991,-0.3592,-0.0098,-1.9389,-1.5637, 2.5871
09-Sep-2020 11:19:11.248, 0.0179, 1.0400, 0.1234,-0.1422,-0.4725, 0.0151,-2.0987,-1.5638, 2.4310
09-Sep-2020 11:19:11.258, 0.0211, 1.0495, 0.1363,-0.1984,-0.5814, 0.0450,-2.3250,-1.5635, 2.2094
09-Sep-2020 11:19:11.268, 0.0305, 1.0468, 0.1508,-0.2692,-0.6837, 0.0802,-2.5819,-1.5625, 1.9583
09-Sep-2020 11:19:11.278, 0.0351, 1.0364, 0.1590,-0.3455,-0.7640, 0.1340,-2.7997,-1.5605, 1.7473
09-Sep-2020 11:19:11.288, 0.0348, 1.0286, 0.1599,-0.4200,-0.8509, 0.1844,-2.9923,-1.5575, 1.5623
09-Sep-2020 11:19:11.298, 0.0336, 1.0281, 0.1635,-0.5002,-0.9405, 0.2251, 3.1393,-1.5535, 1.4192
09-Sep-2020 11:19:11.308, 0.0367, 1.0362, 0.1693,-0.5920,-1.0435, 0.2577, 3.0286,-1.5485, 1.3179
09-Sep-2020 11:19:11.318, 0.0292, 1.0320, 0.1753,-0.6950,-1.1429, 0.2964, 2.9507,-1.5423, 1.2503
09-Sep-2020 11:19:11.328, 0.0210, 1.0282, 0.1750,-0.7921,-1.2553, 0.3328, 2.8941,-1.5349, 1.2051
09-Sep-2020 11:19:11.338, 0.0077, 1.0264, 0.1719,-0.8902,-1.3988, 0.3505, 2.8524,-1.5264, 1.1759
09-Sep-2020 11:19:11.348,-0.0105, 1.0250, 0.1649,-0.9846,-1.5579, 0.3532, 2.8234,-1.5169, 1.1608
09-Sep-2020 11:19:11.358,-0.0312, 1.0169, 0.1530,-1.0580,-1.7135, 0.3384, 2.8037,-1.5066, 1.1567
09-Sep-2020 11:19:11.367,-0.0553, 1.0170, 0.1332,-1.1178,-1.8575, 0.3176, 2.7909,-1.4955, 1.1609
09-Sep-2020 11:19:11.377,-0.0757, 1.0168, 0.1222,-1.1216,-1.9389, 0.2821, 2.7825,-1.4840, 1.1710
09-Sep-2020 11:19:11.387,-0.0927, 1.0163, 0.0971,-1.0705,-1.9615, 0.2434, 2.7766,-1.4726, 1.1845
09-Sep-2020 11:19:11.397,-0.1163, 1.0404, 0.0761,-0.9921,-1.9524, 0.1842, 2.7715,-1.4618, 1.1990
09-Sep-2020 11:19:11.408,-0.1390, 1.0816, 0.0595,-0.9064,-1.8929, 0.0954, 2.7680,-1.4520, 1.2150
09-Sep-2020 11:19:11.417,-0.1431, 1.1186, 0.0356,-0.8026,-1.8332,-0.0103, 2.7681,-1.4433, 1.2341
09-Sep-2020 11:19:11.428,-0.1286, 1.1296, 0.0466,-0.6971,-1.7455,-0.0769, 2.7718,-1.4359, 1.2561
09-Sep-2020 11:19:11.437,-0.1055, 1.1236, 0.0792,-0.6081,-1.6894,-0.0854, 2.7766,-1.4297, 1.2786
09-Sep-2020 11:19:11.447,-0.0799, 1.1081, 0.1525,-0.5489,-1.6134,-0.0278, 2.7794,-1.4243, 1.2984
09-Sep-2020 11:19:11.457,-0.0527, 1.0821, 0.2198,-0.4961,-1.4998, 0.0783, 2.7772,-1.4193, 1.3124
09-Sep-2020 11:19:11.467,-0.0269, 1.0579, 0.2646,-0.4450,-1.3448, 0.1728, 2.7685,-1.4144, 1.3188
09-Sep-2020 11:19:11.477,-0.0203, 1.0365, 0.2579,-0.4128,-1.2066, 0.1578, 2.7554,-1.4097, 1.3190
09-Sep-2020 11:19:11.487,-0.0058, 1.0125, 0.2036,-0.3767,-1.1294, 0.0905, 2.7437,-1.4053, 1.3193
09-Sep-2020 11:19:11.497, 0.0347, 0.9877, 0.1641,-0.3244,-1.0285, 0.0670, 2.7355,-1.4015, 1.3224
09-Sep-2020 11:19:11.507, 0.0660, 0.9687, 0.1619,-0.2715,-0.7964, 0.0878, 2.7286,-1.3983, 1.3257
09-Sep-2020 11:19:11.517, 0.0782, 0.9599, 0.1674,-0.2378,-0.4696, 0.1068, 2.7220,-1.3955, 1.3270
09-Sep-2020 11:19:11.527, 0.0900, 0.9510, 0.1616,-0.2273,-0.1657, 0.1015, 2.7170,-1.3929, 1.3268
09-Sep-2020 11:19:11.537, 0.1047, 0.9443, 0.1507,-0.2326, 0.0781, 0.0914, 2.7150,-1.3904, 1.3264
09-Sep-2020 11:19:11.547, 0.1310, 0.9267, 0.1360,-0.2187, 0.2160, 0.0888, 2.7158,-1.3879, 1.3266
09-Sep-2020 11:19:11.557, 0.1566, 0.9140, 0.1384,-0.1968, 0.2425, 0.1015, 2.7179,-1.3856, 1.3266
09-Sep-2020 11:19:11.567, 0.1877, 0.9039, 0.1540,-0.1660, 0.2131, 0.1383, 2.7191,-1.3834, 1.3254
09-Sep-2020 11:19:11.577, 0.1876, 0.9097, 0.1583,-0.1264, 0.1421, 0.1694, 2.7177,-1.3813, 1.3218
09-Sep-2020 11:19:11.586, 0.1419, 0.9263, 0.1667,-0.0979, 0.0470, 0.1341, 2.7136,-1.3795, 1.3162
09-Sep-2020 11:19:11.597, 0.0926, 0.9290, 0.1647,-0.0756,-0.0479, 0.0299, 2.7097,-1.3781, 1.3118
09-Sep-2020 11:19:11.606, 0.0518, 0.9115, 0.1559,-0.0454,-0.0917,-0.0196, 2.7088,-1.3773, 1.3114
09-Sep-2020 11:19:11.617, 0.0066, 0.9082, 0.1526,-0.0230,-0.0804,-0.0172, 2.7093,-1.3770, 1.3127
09-Sep-2020 11:19:11.627,-0.0418, 0.9189, 0.1474,-0.0150,-0.0472,-0.0461, 2.7096,-1.3768, 1.3138
09-Sep-2020 11:19:11.636,-0.0705, 0.9193, 0.1368,-0.0063,-0.0196,-0.0940, 2.7112,-1.3769, 1.3160
09-Sep-2020 11:19:11.646,-0.0791, 0.9102, 0.1343, 0.0127,-0.0021,-0.1361, 2.7151,-1.3772, 1.3202
09-Sep-2020 11:19:11.656,-0.0742, 0.8993, 0.1370, 0.0478,-0.0046,-0.1456, 2.7206,-1.3779, 1.3258
09-Sep-2020 11:19:11.667,-0.0680, 0.8977, 0.1433, 0.0786,-0.0296,-0.1257, 2.7258,-1.3789, 1.3313
09-Sep-2020 11:19:11.676,-0.0664, 0.9038, 0.1535, 0.1059,-0.0658,-0.0987, 2.7294,-1.3802, 1.3352
09-Sep-2020 11:19:11.686,-0.0571, 0.9154, 0.1556, 0.1295,-0.1176,-0.0767, 2.7308,-1.3815, 1.3373
09-Sep-2020 11:19:11.696,-0.0477, 0.9256, 0.1656, 0.1458,-0.1547,-0.0733, 2.7302,-1.3830, 1.3380
09-Sep-2020 11:19:11.706,-0.0360, 0.9344, 0.1721, 0.1690,-0.1620,-0.0786, 2.7287,-1.3846, 1.3380
09-Sep-2020 11:19:11.716,-0.0176, 0.9400, 0.1759, 0.1887,-0.1702,-0.0956, 2.7269,-1.3865, 1.3378
09-Sep-2020 11:19:11.726, 0.0005, 0.9407, 0.1897, 0.2055,-0.1463,-0.0972, 2.7253,-1.3886, 1.3379
09-Sep-2020 11:19:11.736, 0.0142, 0.9437, 0.1974, 0.2080,-0.1162,-0.0825, 2.7237,-1.3908, 1.3377
09-Sep-2020 11:19:11.746, 0.0293, 0.9487, 0.2063, 0.1985,-0.0794,-0.0861, 2.7216,-1.3930, 1.3368
09-Sep-2020 11:19:11.756, 0.0424, 0.9522, 0.2152, 0.1830,-0.0270,-0.0870, 2.7202,-1.3952, 1.3361
09-Sep-2020 11:19:11.766, 0.0496, 0.9569, 0.2194, 0.1635, 0.0185,-0.0866, 2.7197,-1.3972, 1.3359
09-Sep-2020 11:19:11.776, 0.0585, 0.9608, 0.2231, 0.1422, 0.0523,-0.0899, 2.7237,-1.3993, 1.3397
09-Sep-2020 11:19:11.785, 0.0688, 0.9631, 0.2267, 0.1219, 0.0917,-0.0835, 2.7272,-1.4011, 1.3427
09-Sep-2020 11:19:11.795, 0.0692, 0.9638, 0.2246, 0.0975, 0.1160,-0.0688, 2.7296,-1.4025, 1.3441
09-Sep-2020 11:19:11.805, 0.0660, 0.9636, 0.2198, 0.0696, 0.1179,-0.0653, 2.7321,-1.4037, 1.3455
09-Sep-2020 11:19:11.815, 0.0634, 0.9561, 0.2147, 0.0488, 0.1143,-0.0645, 2.7350,-1.4046, 1.3472
09-Sep-2020 11:19:11.826, 0.0638, 0.9414, 0.2055, 0.0340, 0.0941,-0.0596, 2.7382,-1.4053, 1.3494
09-Sep-2020 11:19:11.835, 0.0667, 0.9244, 0.1937, 0.0402, 0.0557,-0.0533, 2.7413,-1.4058, 1.3516
09-Sep-2020 11:19:11.846, 0.0667, 0.9173, 0.1860, 0.0453, 0.0189,-0.0427, 2.7436,-1.4063, 1.3533
09-Sep-2020 11:19:11.857, 0.0688, 0.9128, 0.1835, 0.0509,-0.0136,-0.0422, 2.7448,-1.4069, 1.3543
09-Sep-2020 11:19:11.865, 0.0763, 0.9076, 0.1835, 0.0438,-0.0511,-0.0403, 2.7454,-1.4075, 1.3552
09-Sep-2020 11:19:11.875, 0.0842, 0.9055, 0.1844, 0.0314,-0.0880,-0.0324, 2.7457,-1.4080, 1.3559
09-Sep-2020 11:19:11.885, 0.0923, 0.9071, 0.1879, 0.0054,-0.1237,-0.0198, 2.7455,-1.4083, 1.3566
09-Sep-2020 11:19:11.895, 0.0956, 0.9124, 0.1922,-0.0302,-0.1487,-0.0031, 2.7449,-1.4084, 1.3573
09-Sep-2020 11:19:11.905, 0.0906, 0.9199, 0.1945,-0.0402,-0.1545, 0.0170, 2.7438,-1.4081, 1.3576
09-Sep-2020 11:19:11.915, 0.0816, 0.9261, 0.1867,-0.0250,-0.1290, 0.0211, 2.7419,-1.4077, 1.3573
09-Sep-2020 11:19:11.925, 0.0790, 0.9242, 0.1721, 0.0212,-0.0867, 0.0137, 2.7396,-1.4074, 1.3563
09-Sep-2020 11:19:11.935, 0.0819, 0.9133, 0.1559, 0.0849,-0.0073,-0.0119, 2.7371,-1.4075, 1.3546
09-Sep-2020 11:19:11.945, 0.0846, 0.8992, 0.1523, 0.1420, 0.1116,-0.0386, 2.7353,-1.4083, 1.3528
09-Sep-2020 11:19:11.955, 0.0871, 0.8882, 0.1613, 0.1614, 0.2803,-0.0641, 2.7347,-1.4097, 1.3511
09-Sep-2020 11:19:11.965, 0.0924, 0.8791, 0.1704, 0.1343, 0.4543,-0.0779, 2.7366,-1.4114, 1.3502
09-Sep-2020 11:19:11.975, 0.0969, 0.8746, 0.1698, 0.0821, 0.6162,-0.0784, 2.7417,-1.4129, 1.3508
09-Sep-2020 11:19:11.985, 0.0972, 0.8744, 0.1632, 0.0346, 0.7649,-0.0765, 2.7499,-1.4139, 1.3528
09-Sep-2020 11:19:11.994, 0.0938, 0.8822, 0.1557, 0.0045, 0.9052,-0.0725, 2.7606,-1.4146, 1.3560
09-Sep-2020 11:19:12.004, 0.0893, 0.8934, 0.1394,-0.0009, 0.9969,-0.0671, 2.7731,-1.4149, 1.3596
09-Sep-2020 11:19:12.014, 0.0867, 0.9091, 0.1215, 0.0264, 1.0255,-0.0609, 2.7864,-1.4151, 1.3631
09-Sep-2020 11:19:12.025, 0.0868, 0.9321, 0.1009, 0.0816, 0.9948,-0.0450, 2.7990,-1.4156, 1.3656
09-Sep-2020 11:19:12.035, 0.0958, 0.9665, 0.0760, 0.1866, 0.9089,-0.0235, 2.8093,-1.4165, 1.3660
09-Sep-2020 11:19:12.044, 0.1066, 1.0180, 0.0621, 0.3455, 0.8205, 0.0112, 2.8152,-1.4184, 1.3628
09-Sep-2020 11:19:12.054, 0.1101, 1.0969, 0.0710, 0.5162, 0.7661, 0.0304, 2.8149,-1.4217, 1.3543
09-Sep-2020 11:19:12.064, 0.0961, 1.1975, 0.1100, 0.6467, 0.7237, 0.0321, 2.8088,-1.4264, 1.3405
09-Sep-2020 11:19:12.074, 0.0754, 1.2920, 0.1721, 0.6902, 0.6559,-0.0113, 2.7986,-1.4324, 1.3229
09-Sep-2020 11:19:12.085, 0.0528, 1.3435, 0.2407, 0.6368, 0.5366,-0.0901, 2.7885,-1.4388, 1.3061
09-Sep-2020 11:19:12.094, 0.0455, 1.3014, 0.3094, 0.5081, 0.4011,-0.1443, 2.7827,-1.4450, 1.2949
09-Sep-2020 11:19:12.104, 0.0484, 1.1585, 0.3506, 0.3484, 0.3924,-0.1393, 2.7824,-1.4502, 1.2905
09-Sep-2020 11:19:12.114, 0.0733, 1.0332, 0.3140, 0.2580, 0.5148,-0.1025, 2.7861,-1.4540, 1.2903
09-Sep-2020 11:19:12.124, 0.1119, 0.9594, 0.2498, 0.2586, 0.7614,-0.0599, 2.7911,-1.4568, 1.2901
09-Sep-2020 11:19:12.134, 0.1372, 0.9123, 0.1869, 0.3054, 1.0747,-0.0255, 2.7953,-1.4595, 1.2866
09-Sep-2020 11:19:12.144, 0.1525, 0.8862, 0.1389, 0.3315, 1.3853, 0.0054, 2.7981,-1.4624, 1.2787
09-Sep-2020 11:19:12.154, 0.1523, 0.8759, 0.1059, 0.3191, 1.6689, 0.0166, 2.8005,-1.4655, 1.2673
09-Sep-2020 11:19:12.164, 0.1426, 0.8717, 0.0692, 0.2834, 1.8628, 0.0025, 2.8049,-1.4685, 1.2551
09-Sep-2020 11:19:12.174, 0.1324, 0.8663, 0.0384, 0.2498, 1.9669,-0.0146, 2.8134,-1.4711, 1.2450
09-Sep-2020 11:19:12.184, 0.1213, 0.8633,-0.0013, 0.2519, 1.9940,-0.0047, 2.8254,-1.4736, 1.2374
09-Sep-2020 11:19:12.194, 0.1065, 0.8673,-0.0214, 0.2954, 1.9881, 0.0098, 2.8368,-1.4760, 1.2290
09-Sep-2020 11:19:12.204, 0.0916, 0.8717,-0.0299, 0.3488, 1.9654, 0.0222, 2.8454,-1.4788, 1.2178
09-Sep-2020 11:19:12.213, 0.0724, 0.8805,-0.0367, 0.3912, 1.8639, 0.0222, 2.8508,-1.4821, 1.2036
09-Sep-2020 11:19:12.224, 0.0514, 0.9031,-0.0357, 0.3963, 1.6350, 0.0137, 2.8533,-1.4858, 1.1877
09-Sep-2020 11:19:12.233, 0.0279, 0.9368,-0.0078, 0.3479, 1.3084, 0.0169, 2.8537,-1.4895, 1.1718
09-Sep-2020 11:19:12.244,-0.0159, 0.9896, 0.0580, 0.2434, 0.9789, 0.0109, 2.8516,-1.4927, 1.1566
09-Sep-2020 11:19:12.253,-0.0584, 1.0512, 0.1015, 0.1298, 0.6537,-0.0093, 2.8502,-1.4950, 1.1454
09-Sep-2020 11:19:12.263,-0.0931, 1.1088, 0.1104, 0.0629, 0.4255,-0.0223, 2.8519,-1.4963, 1.1406
09-Sep-2020 11:19:12.273,-0.1112, 1.1532, 0.0727, 0.0645, 0.2965,-0.0053, 2.8551,-1.4970, 1.1395
09-Sep-2020 11:19:12.283,-0.1270, 1.1791, 0.0410, 0.1014, 0.2428, 0.0302, 2.8551,-1.4977, 1.1365
09-Sep-2020 11:19:12.293,-0.1526, 1.1855, 0.0093, 0.1223, 0.2220, 0.0638, 2.8485,-1.4986, 1.1275
09-Sep-2020 11:19:12.303,-0.1745, 1.1721,-0.0043, 0.1100, 0.1985, 0.0759, 2.8363,-1.4996, 1.1130
09-Sep-2020 11:19:12.313,-0.1638, 1.1282,-0.0409, 0.0690, 0.1249, 0.1110, 2.8219,-1.5004, 1.0966
09-Sep-2020 11:19:12.323,-0.1427, 1.0639,-0.1000, 0.0627,-0.0016, 0.1774, 2.8035,-1.5007, 1.0770
09-Sep-2020 11:19:12.333,-0.0981, 0.9948,-0.1516, 0.0913,-0.1463, 0.2771, 2.7753,-1.5007, 1.0488
09-Sep-2020 11:19:12.343,-0.0527, 0.9491,-0.1820, 0.1494,-0.2238, 0.3648, 2.7317,-1.5005, 1.0066
09-Sep-2020 11:19:12.353,-0.0178, 0.9197,-0.1776, 0.2234,-0.1762, 0.3980, 2.6733,-1.5003, 0.9501
09-Sep-2020 11:19:12.363, 0.0091, 0.9018,-0.1518, 0.2841,-0.0135, 0.4003, 2.6064,-1.5004, 0.8848
09-Sep-2020 11:19:12.373, 0.0094, 0.9040,-0.1055, 0.3075, 0.1920, 0.3693, 2.5363,-1.5006, 0.8146
09-Sep-2020 11:19:12.383,-0.0111, 0.9269,-0.0356, 0.2779, 0.4467, 0.2727, 2.4699,-1.5009, 0.7461
09-Sep-2020 11:19:12.393,-0.0323, 0.9674, 0.0371, 0.2348, 0.7397, 0.1381, 2.4184,-1.5012, 0.6900
09-Sep-2020 11:19:12.403,-0.0558, 1.0047, 0.1039, 0.2229, 1.0717, 0.0223, 2.3869,-1.5020, 0.6510
09-Sep-2020 11:19:12.412,-0.0768, 1.0363, 0.1763, 0.2390, 1.4479,-0.0496, 2.3711,-1.5034, 0.6245
09-Sep-2020 11:19:12.423,-0.0972, 1.0615, 0.1325, 0.2922, 1.6537,-0.0928, 2.3641,-1.5055, 0.6032
09-Sep-2020 11:19:12.432,-0.0998, 1.0630, 0.0681, 0.3245, 1.5542,-0.1189, 2.3577,-1.5081, 0.5804
09-Sep-2020 11:19:12.443,-0.0737, 1.0513,-0.0171, 0.3230, 1.3115,-0.1226, 2.3482,-1.5112, 0.5555
09-Sep-2020 11:19:12.453,-0.0462, 1.0343,-0.1161, 0.3044, 0.9282,-0.1064, 2.3346,-1.5143, 0.5289
09-Sep-2020 11:19:12.462,-0.0313, 1.0213,-0.1444, 0.2640, 0.6137,-0.0893, 2.3158,-1.5171, 0.5008
09-Sep-2020 11:19:12.472,-0.0300, 1.0130,-0.1626, 0.2290, 0.3817,-0.0726, 2.2947,-1.5195, 0.4735
09-Sep-2020 11:19:12.482,-0.0418, 1.0220,-0.1499, 0.1946, 0.2490,-0.0610, 2.2723,-1.5215, 0.4472
09-Sep-2020 11:19:12.492,-0.0555, 1.0283,-0.0962, 0.1513, 0.2475,-0.0503, 2.2508,-1.5231, 0.4232
09-Sep-2020 11:19:12.502,-0.0639, 1.0329,-0.0463, 0.1079, 0.2793,-0.0376, 2.2331,-1.5244, 0.4030
09-Sep-2020 11:19:12.512,-0.0684, 1.0375,-0.0016, 0.0789, 0.2930,-0.0259, 2.2207,-1.5253, 0.3878
09-Sep-2020 11:19:12.522,-0.0658, 1.0485, 0.0507, 0.0761, 0.3185,-0.0217, 2.2115,-1.5260, 0.3757
09-Sep-2020 11:19:12.532,-0.0387, 1.0544, 0.0445, 0.1047, 0.2500,-0.0205, 2.2016,-1.5266, 0.3627
09-Sep-2020 11:19:12.542, 0.0073, 1.0373, 0.0530, 0.1044, 0.1438,-0.0148, 2.1864,-1.5273, 0.3450
09-Sep-2020 11:19:12.552, 0.0490, 1.0102, 0.0277, 0.0713,-0.0219, 0.0112, 2.1684,-1.5279, 0.3257
09-Sep-2020 11:19:12.562, 0.0716, 0.9984, 0.0001, 0.0243,-0.1642, 0.0465, 2.1516,-1.5282, 0.3090
09-Sep-2020 11:19:12.572, 0.0866, 0.9904,-0.0194,-0.0146,-0.2427, 0.0703, 2.1379,-1.5279, 0.2969
09-Sep-2020 11:19:12.582, 0.0964, 0.9905,-0.0243,-0.0445,-0.2272, 0.0836, 2.1284,-1.5272, 0.2897
09-Sep-2020 11:19:12.592, 0.0980, 0.9887,-0.0235,-0.0625,-0.1456, 0.0896, 2.1233,-1.5262, 0.2869
09-Sep-2020 11:19:12.602, 0.0927, 0.9890,-0.0218,-0.0608,-0.0399, 0.0869, 2.1217,-1.5251, 0.2868
09-Sep-2020 11:19:12.612, 0.0863, 0.9897,-0.0132,-0.0426, 0.0645, 0.0781, 2.1212,-1.5240, 0.2866
09-Sep-2020 11:19:12.622, 0.0789, 0.9967, 0.0044,-0.0120, 0.1615, 0.0564, 2.1195,-1.5231, 0.2843
09-Sep-2020 11:19:12.632, 0.0728, 1.0048, 0.0251, 0.0136, 0.2395, 0.0388, 2.1167,-1.5225, 0.2799
09-Sep-2020 11:19:12.642, 0.0679, 1.0123, 0.0406, 0.0295, 0.2651, 0.0238, 2.1111,-1.5222, 0.2719
09-Sep-2020 11:19:12.651, 0.0698, 1.0150, 0.0543, 0.0340, 0.2467, 0.0121, 2.1037,-1.5221, 0.2619
09-Sep-2020 11:19:12.662, 0.0786, 1.0108, 0.0622, 0.0255, 0.2092, 0.0004, 2.0960,-1.5221, 0.2518
09-Sep-2020 11:19:12.671, 0.0947, 1.0007, 0.0603, 0.0150, 0.1643,-0.0026, 2.0901,-1.5221, 0.2438
09-Sep-2020 11:19:12.682, 0.1104, 0.9881, 0.0551, 0.0093, 0.1295,-0.0051, 2.0861,-1.5222, 0.2382
09-Sep-2020 11:19:12.691, 0.1177, 0.9783, 0.0556, 0.0075, 0.1230, 0.0013, 2.0830,-1.5222, 0.2338
09-Sep-2020 11:19:12.701, 0.1138, 0.9764, 0.0586, 0.0151, 0.1461,-0.0071, 2.0797,-1.5221, 0.2292
09-Sep-2020 11:19:12.711, 0.0940, 0.9888, 0.0586, 0.0261, 0.1887,-0.0323, 2.0767,-1.5222, 0.2248
09-Sep-2020 11:19:12.722, 0.0567, 1.0017, 0.0606, 0.0416, 0.2310,-0.0511, 2.0749,-1.5226, 0.2211
09-Sep-2020 11:19:12.731, 0.0120, 1.0096, 0.0596, 0.0470, 0.2572,-0.0724, 2.0734,-1.5231, 0.2173
09-Sep-2020 11:19:12.741,-0.0214, 1.0132, 0.0501, 0.0474, 0.2497,-0.1033, 2.0737,-1.5239, 0.2151
09-Sep-2020 11:19:12.751,-0.0447, 1.0108, 0.0400, 0.0468, 0.2066,-0.1296, 2.0768,-1.5249, 0.2158
09-Sep-2020 11:19:12.761,-0.0592, 1.0042, 0.0305, 0.0415, 0.1369,-0.1500, 2.0820,-1.5261, 0.2189
09-Sep-2020 11:19:12.771,-0.0676, 0.9977, 0.0258, 0.0250, 0.0644,-0.1544, 2.0901,-1.5275, 0.2257
09-Sep-2020 11:19:12.781,-0.0741, 0.9972, 0.0246, 0.0010, 0.0026,-0.1503, 2.1017,-1.5288, 0.2367
09-Sep-2020 11:19:12.791,-0.0703, 0.9989, 0.0242,-0.0267,-0.0560,-0.1311, 2.1177,-1.5299, 0.2527
09-Sep-2020 11:19:12.801,-0.0557, 1.0090, 0.0178,-0.0419,-0.1145,-0.1211, 2.1377,-1.5308, 0.2732
09-Sep-2020 11:19:12.810,-0.0336, 1.0165, 0.0070,-0.0549,-0.1851,-0.1209, 2.1606,-1.5315, 0.2973
09-Sep-2020 11:19:12.821,-0.0113, 1.0223,-0.0050,-0.0673,-0.2547,-0.1120, 2.1867,-1.5321, 0.3253
09-Sep-2020 11:19:12.830, 0.0068, 1.0371,-0.0201,-0.0707,-0.3301,-0.0902, 2.2144,-1.5326, 0.3556
09-Sep-2020 11:19:12.840, 0.0193, 1.0554,-0.0290,-0.0744,-0.4220,-0.0666, 2.2401,-1.5329, 0.3846
09-Sep-2020 11:19:12.850, 0.0267, 1.0646,-0.0258,-0.0837,-0.4938,-0.0470, 2.2621,-1.5330, 0.4109
09-Sep-2020 11:19:12.860, 0.0333, 1.0492,-0.0201,-0.0951,-0.5307,-0.0323, 2.2820,-1.5328, 0.4356
09-Sep-2020 11:19:12.871, 0.0461, 1.0244,-0.0222,-0.0933,-0.5561,-0.0130, 2.3005,-1.5325, 0.4595
09-Sep-2020 11:19:12.880, 0.0567, 0.9996,-0.0284,-0.0913,-0.5668, 0.0093, 2.3133,-1.5320, 0.4778
09-Sep-2020 11:19:12.890, 0.0592, 0.9793,-0.0333,-0.0788,-0.5595, 0.0251, 2.3212,-1.5312, 0.4913
09-Sep-2020 11:19:12.900, 0.0562, 0.9675,-0.0388,-0.0514,-0.5467, 0.0297, 2.3237,-1.5305, 0.4994
09-Sep-2020 11:19:12.910, 0.0509, 0.9617,-0.0409,-0.0235,-0.5307, 0.0311, 2.3207,-1.5299, 0.5018
09-Sep-2020 11:19:12.920, 0.0417, 0.9576,-0.0345, 0.0004,-0.5043, 0.0355, 2.3125,-1.5295, 0.4990
09-Sep-2020 11:19:12.930, 0.0293, 0.9572,-0.0250, 0.0173,-0.4659, 0.0294, 2.3001,-1.5293, 0.4915
09-Sep-2020 11:19:12.940, 0.0140, 0.9670,-0.0135, 0.0288,-0.4049, 0.0230, 2.2858,-1.5291, 0.4818
09-Sep-2020 11:19:12.950,-0.0062, 0.9873, 0.0074, 0.0282,-0.3404, 0.0125, 2.2714,-1.5291, 0.4715
09-Sep-2020 11:19:12.960,-0.0252, 1.0056, 0.0363, 0.0146,-0.2797,-0.0071, 2.2595,-1.5292, 0.4630
09-Sep-2020 11:19:12.970,-0.0410, 1.0183, 0.0671,-0.0204,-0.2357,-0.0216, 2.2536,-1.5292, 0.4599
09-Sep-2020 11:19:12.980,-0.0490, 1.0282, 0.0921,-0.0586,-0.2154,-0.0327, 2.2564,-1.5293, 0.4651
09-Sep-2020 11:19:12.990,-0.0492, 1.0328, 0.0856,-0.0856,-0.2819,-0.0357, 2.2677,-1.5291, 0.4786
09-Sep-2020 11:19:13.000,-0.0511, 1.0288, 0.0795,-0.1136,-0.3886,-0.0321, 2.2839,-1.5288, 0.4976
09-Sep-2020 11:19:13.010,-0.0432, 1.0231, 0.0548,-0.1306,-0.5230,-0.0321, 2.3030,-1.5283, 0.5207
09-Sep-2020 11:19:13.020,-0.0245, 1.0194, 0.0346,-0.1435,-0.6464,-0.0323, 2.3231,-1.5276, 0.5460
09-Sep-2020 11:19:13.030,-0.0057, 1.0139, 0.0160,-0.1519,-0.7453,-0.0251, 2.3433,-1.5268, 0.5727
09-Sep-2020 11:19:13.039, 0.0047, 1.0068, 0.0028,-0.1595,-0.8108,-0.0183, 2.3622,-1.5259, 0.5990
09-Sep-2020 11:19:13.049, 0.0085, 0.9975,-0.0088,-0.1610,-0.8608,-0.0133, 2.3796,-1.5248, 0.6244
09-Sep-2020 11:19:13.059, 0.0079, 0.9881,-0.0105,-0.1592,-0.8892,-0.0098, 2.3950,-1.5237, 0.6484
09-Sep-2020 11:19:13.069, 0.0070, 0.9787,-0.0033,-0.1511,-0.8933,-0.0175, 2.4084,-1.5226, 0.6707
09-Sep-2020 11:19:13.080, 0.0082, 0.9691, 0.0085,-0.1478,-0.8803,-0.0200, 2.4210,-1.5216, 0.6922
09-Sep-2020 11:19:13.089, 0.0107, 0.9686, 0.0211,-0.1485,-0.8494,-0.0231, 2.4333,-1.5206, 0.7133
09-Sep-2020 11:19:13.099, 0.0143, 0.9767, 0.0378,-0.1470,-0.8067,-0.0229, 2.4456,-1.5196, 0.7341
09-Sep-2020 11:19:13.109, 0.0173, 0.9901, 0.0446,-0.1349,-0.7620,-0.0219, 2.4574,-1.5186, 0.7540
09-Sep-2020 11:19:13.119, 0.0218, 1.0011, 0.0508,-0.1261,-0.7224,-0.0214, 2.4678,-1.5177, 0.7721
09-Sep-2020 11:19:13.130, 0.0261, 1.0096, 0.0546,-0.1144,-0.6880,-0.0185, 2.4767,-1.5168, 0.7882
09-Sep-2020 11:19:13.139, 0.0273, 1.0153, 0.0539,-0.1142,-0.6671,-0.0141, 2.4839,-1.5160, 0.8023
09-Sep-2020 11:19:13.149, 0.0285, 1.0160, 0.0522,-0.1233,-0.6392,-0.0141, 2.4905,-1.5152, 0.8155
09-Sep-2020 11:19:13.159, 0.0311, 1.0123, 0.0480,-0.1365,-0.6084,-0.0121, 2.4979,-1.5143, 0.8293
09-Sep-2020 11:19:13.169, 0.0337, 1.0047, 0.0452,-0.1355,-0.5652,-0.0029, 2.5059,-1.5132, 0.8434
09-Sep-2020 11:19:13.179, 0.0372, 0.9980, 0.0438,-0.1314,-0.5279, 0.0052, 2.5130,-1.5122, 0.8561
09-Sep-2020 11:19:13.189, 0.0386, 0.9873, 0.0444,-0.1256,-0.5025, 0.0101, 2.5188,-1.5111, 0.8671
09-Sep-2020 11:19:13.199, 0.0427, 0.9798, 0.0505,-0.1221,-0.4800, 0.0170, 2.5231,-1.5100, 0.8766
09-Sep-2020 11:19:13.209, 0.0467, 0.9826, 0.0558,-0.1134,-0.4568, 0.0242, 2.5262,-1.5089, 0.8844
09-Sep-2020 11:19:13.219, 0.0501, 0.9811, 0.0636,-0.1088,-0.4338, 0.0303, 2.5277,-1.5078, 0.8905
09-Sep-2020 11:19:13.229, 0.0574, 0.9818, 0.0695,-0.1027,-0.4087, 0.0398, 2.5278,-1.5067, 0.8949
09-Sep-2020 11:19:13.239, 0.0610, 0.9880, 0.0700,-0.0978,-0.3737, 0.0495, 2.5264,-1.5057, 0.8976
09-Sep-2020 11:19:13.249, 0.0692, 0.9878, 0.0705,-0.0931,-0.3415, 0.0588, 2.5239,-1.5046, 0.8988
09-Sep-2020 11:19:13.259, 0.0758, 0.9863, 0.0641,-0.0848,-0.3128, 0.0672, 2.5202,-1.5035, 0.8986
09-Sep-2020 11:19:13.269, 0.0794, 0.9855, 0.0568,-0.0744,-0.2909, 0.0721, 2.5153,-1.5024, 0.8968
09-Sep-2020 11:19:13.279, 0.0845, 0.9840, 0.0523,-0.0654,-0.2730, 0.0825, 2.5091,-1.5013, 0.8935
09-Sep-2020 11:19:13.289, 0.0839, 0.9855, 0.0515,-0.0585,-0.2591, 0.0990, 2.5012,-1.5003, 0.8883
09-Sep-2020 11:19:13.298, 0.0809, 0.9845, 0.0508,-0.0537,-0.2532, 0.1071, 2.4915,-1.4992, 0.8812
09-Sep-2020 11:19:13.308, 0.0772, 0.9830, 0.0528,-0.0523,-0.2439, 0.1118, 2.4808,-1.4981, 0.8730
09-Sep-2020 11:19:13.319, 0.0710, 0.9828, 0.0581,-0.0466,-0.2334, 0.1084, 2.4698,-1.4971, 0.8644
09-Sep-2020 11:19:13.328, 0.0624, 0.9811, 0.0651,-0.0388,-0.2208, 0.1086, 2.4589,-1.4960, 0.8558
09-Sep-2020 11:19:13.339, 0.0529, 0.9818, 0.0708,-0.0323,-0.2035, 0.1027, 2.4480,-1.4950, 0.8471
09-Sep-2020 11:19:13.348, 0.0471, 0.9856, 0.0802,-0.0284,-0.1924, 0.0902, 2.4374,-1.4941, 0.8385
09-Sep-2020 11:19:13.358, 0.0455, 0.9898, 0.0904,-0.0336,-0.1639, 0.0786, 2.4281,-1.4932, 0.8311
09-Sep-2020 11:19:13.368, 0.0483, 0.9907, 0.0967,-0.0405,-0.1349, 0.0684, 2.4206,-1.4924, 0.8252
09-Sep-2020 11:19:13.379, 0.0510, 0.9938, 0.0961,-0.0456,-0.0996, 0.0588, 2.4151,-1.4917, 0.8210
09-Sep-2020 11:19:13.388, 0.0523, 0.9983, 0.0902,-0.0464,-0.0622, 0.0501, 2.4113,-1.4909, 0.8183
09-Sep-2020 11:19:13.398, 0.0518, 0.9995, 0.0795,-0.0422,-0.0337, 0.0388, 2.4088,-1.4902, 0.8164
09-Sep-2020 11:19:13.408, 0.0500, 0.9987, 0.0667,-0.0362,-0.0136, 0.0299, 2.4071,-1.4896, 0.8150
09-Sep-2020 11:19:13.418, 0.0465, 0.9964, 0.0520,-0.0250,-0.0053, 0.0185, 2.4060,-1.4891, 0.8141
09-Sep-2020 11:19:13.428, 0.0416, 0.9897, 0.0406,-0.0126,-0.0037, 0.0126, 2.4054,-1.4888, 0.8136
09-Sep-2020 11:19:13.438, 0.0394, 0.9809, 0.0322,-0.0068,-0.0046, 0.0061, 2.4047,-1.4886, 0.8129
09-Sep-2020 11:19:13.448, 0.0381, 0.9739, 0.0293, 0.0024,-0.0014, 0.0033, 2.4041,-1.4885, 0.8123
09-Sep-2020 11:19:13.457, 0.0372, 0.9687, 0.0348, 0.0126, 0.0144,-0.0091, 2.4031,-1.4884, 0.8114
09-Sep-2020 11:19:13.467, 0.0392, 0.9661, 0.0470, 0.0158, 0.0381,-0.0215, 2.4024,-1.4885, 0.8106
09-Sep-2020 11:19:13.477, 0.0409, 0.9684, 0.0627, 0.0138, 0.0648,-0.0342, 2.4027,-1.4887, 0.8105
09-Sep-2020 11:19:13.487, 0.0414, 0.9788, 0.0746, 0.0101, 0.0816,-0.0437, 2.4045,-1.4890, 0.8116
09-Sep-2020 11:19:13.498, 0.0443, 0.9910, 0.0813, 0.0067, 0.0890,-0.0433, 2.4074,-1.4894, 0.8138
09-Sep-2020 11:19:13.507, 0.0469, 0.9999, 0.0802, 0.0074, 0.0722,-0.0400, 2.4106,-1.4897, 0.8161
09-Sep-2020 11:19:13.517, 0.0475, 1.0031, 0.0744,-0.0070, 0.0380,-0.0354, 2.4134,-1.4900, 0.8182
09-Sep-2020 11:19:13.527, 0.0452, 1.0049, 0.0635,-0.0165,-0.0081,-0.0218, 2.4163,-1.4903, 0.8208
09-Sep-2020 11:19:13.537, 0.0436, 1.0052, 0.0542,-0.0209,-0.0539,-0.0055, 2.4183,-1.4903, 0.8229
09-Sep-2020 11:19:13.547, 0.0444, 1.0067, 0.0529,-0.0244,-0.0679, 0.0158, 2.4188,-1.4902, 0.8239
09-Sep-2020 11:19:13.557, 0.0410, 1.0003, 0.0530,-0.0233,-0.0633, 0.0315, 2.4177,-1.4900, 0.8234
09-Sep-2020 11:19:13.567, 0.0369, 0.9872, 0.0547,-0.0248,-0.0488, 0.0122, 2.4155,-1.4896, 0.8219
09-Sep-2020 11:19:13.577, 0.0447, 0.9959, 0.0527,-0.0188, 0.0003, 0.0388, 2.4148,-1.4893, 0.8216
09-Sep-2020 11:19:13.587, 0.0364, 1.0043, 0.0525,-0.0101, 0.0636, 0.0548, 2.4123,-1.4889, 0.8192
09-Sep-2020 11:19:13.597, 0.0290, 1.0029, 0.0518,-0.0077, 0.1057, 0.0531, 2.4084,-1.4884, 0.8147
09-Sep-2020 11:19:13.607, 0.0226, 0.9985, 0.0556,-0.0135, 0.1204, 0.0546, 2.4046,-1.4880, 0.8098
09-Sep-2020 11:19:13.617, 0.0212, 0.9965, 0.0578,-0.0229, 0.1288, 0.0500, 2.4013,-1.4875, 0.8053
09-Sep-2020 11:19:13.627, 0.0096, 0.9952, 0.0496,-0.0248, 0.1101, 0.0718, 2.3989,-1.4870, 0.8016
09-Sep-2020 11:19:13.637,-0.0011, 1.0010, 0.0531,-0.0324, 0.0783, 0.0452, 2.3950,-1.4863, 0.7967
09-Sep-2020 11:19:13.647,-0.0025, 0.9968, 0.0547,-0.0406, 0.0585, 0.0455, 2.3932,-1.4858, 0.7940
09-Sep-2020 11:19:13.657,-0.0126, 0.9952, 0.0497,-0.0406, 0.0196, 0.0540, 2.3922,-1.4852, 0.7924
09-Sep-2020 11:19:13.667,-0.0219, 0.9904, 0.0515,-0.0462,-0.0152, 0.0390, 2.3904,-1.4845, 0.7904
09-Sep-2020 11:19:13.677,-0.0226, 0.9823, 0.0526,-0.0495,-0.0521, 0.0269, 2.3897,-1.4839, 0.7899
09-Sep-2020 11:19:13.686,-0.0215, 0.9859, 0.0541,-0.0545,-0.0686, 0.0175, 2.3900,-1.4834, 0.7908
09-Sep-2020 11:19:13.696,-0.0224, 0.9952, 0.0527,-0.0546,-0.0736, 0.0071, 2.3913,-1.4829, 0.7928
09-Sep-2020 11:19:13.706,-0.0179, 0.9958, 0.0538,-0.0528,-0.0636,-0.0063, 2.3936,-1.4825, 0.7959
09-Sep-2020 11:19:13.717,-0.0166, 0.9945, 0.0554,-0.0379,-0.0243,-0.0210, 2.3970,-1.4822, 0.7998
09-Sep-2020 11:19:13.726,-0.0190, 0.9907, 0.0538,-0.0189, 0.0081,-0.0373, 2.4010,-1.4821, 0.8041
09-Sep-2020 11:19:13.736,-0.0273, 0.9997, 0.0461,-0.0068,-0.0253,-0.0583, 2.4053,-1.4823, 0.8084
09-Sep-2020 11:19:13.746,-0.0151, 0.9920, 0.0595,-0.0078,-0.1245,-0.0859, 2.4102,-1.4827, 0.8136
09-Sep-2020 11:19:13.757, 0.0584, 0.9584, 0.1203, 0.0102,-0.0287,-0.1004, 2.4165,-1.4832, 0.8211
09-Sep-2020 11:19:13.766, 0.0932, 0.9828, 0.1371, 0.0260, 0.1533,-0.1173, 2.4240,-1.4840, 0.8289
09-Sep-2020 11:19:13.776, 0.1000, 0.9877, 0.1273, 0.0035, 0.2628,-0.1368, 2.4339,-1.4850, 0.8372
09-Sep-2020 11:19:13.786, 0.1290, 0.9621, 0.1248,-0.0247, 0.3482,-0.1388, 2.4482,-1.4860, 0.8490
09-Sep-2020 11:19:13.796, 0.1673, 0.9354, 0.1120,-0.0486, 0.4204,-0.1024, 2.4656,-1.4867, 0.8630
09-Sep-2020 11:19:13.806, 0.1904, 0.9303, 0.0658,-0.0620, 0.4067,-0.0455, 2.4821,-1.4870, 0.8755
09-Sep-2020 11:19:13.816, 0.1864, 0.9743, 0.0145,-0.0708, 0.2589,-0.0278, 2.4946,-1.4868, 0.8840
09-Sep-2020 11:19:13.826, 0.1754, 1.0372,-0.0084,-0.0868, 0.0298,-0.0508, 2.5046,-1.4865, 0.8915
09-Sep-2020 11:19:13.836, 0.1499, 1.0495, 0.0026,-0.1301,-0.1572,-0.0689, 2.5155,-1.4861, 0.9022
09-Sep-2020 11:19:13.846, 0.0967, 1.0178, 0.0105,-0.1768,-0.2372,-0.0262, 2.5284,-1.4854, 0.9166
09-Sep-2020 11:19:13.856, 0.0430, 1.0208,-0.0074,-0.1736,-0.2815,-0.0113, 2.5393,-1.4840, 0.9299
09-Sep-2020 11:19:13.865, 0.0147, 1.0366,-0.0247,-0.1050,-0.3271,-0.0348, 2.5475,-1.4826, 0.9409
09-Sep-2020 11:19:13.875, 0.0247, 1.0406,-0.0099, 0.0088,-0.3272,-0.0640, 2.5525,-1.4819, 0.9492
09-Sep-2020 11:19:13.885, 0.0622, 1.0263, 0.0473, 0.1123,-0.2071,-0.0718, 2.5493,-1.4818, 0.9493
09-Sep-2020 11:19:13.895, 0.1076, 1.0198, 0.1142, 0.1650, 0.0216,-0.0825, 2.5367,-1.4825, 0.9388
09-Sep-2020 11:19:13.906, 0.1398, 1.0109, 0.1471, 0.1752, 0.2581,-0.0862, 2.5212,-1.4841, 0.9230
09-Sep-2020 11:19:13.915, 0.1529, 0.9930, 0.1558, 0.1442, 0.4132,-0.0715, 2.5191,-1.4860, 0.9184
09-Sep-2020 11:19:13.925, 0.1475, 0.9794, 0.1492, 0.0804, 0.4419,-0.0426, 2.5192,-1.4875, 0.9145
09-Sep-2020 11:19:13.935, 0.1333, 0.9689, 0.1496, 0.0096, 0.4074,-0.0258, 2.5214,-1.4884, 0.9123
09-Sep-2020 11:19:13.945, 0.1243, 0.9569, 0.1518,-0.0402, 0.3757,-0.0130, 2.5262,-1.4886, 0.9131
09-Sep-2020 11:19:13.955, 0.1222, 0.9461, 0.1321,-0.0666, 0.3599, 0.0015, 2.5330,-1.4884, 0.9162
09-Sep-2020 11:19:13.965, 0.1197, 0.9432, 0.1046,-0.0726, 0.3560, 0.0156, 2.5401,-1.4878, 0.9196
09-Sep-2020 11:19:13.975, 0.1147, 0.9530, 0.0773,-0.0642, 0.3672, 0.0224, 2.5461,-1.4871, 0.9221
09-Sep-2020 11:19:13.985, 0.1065, 0.9654, 0.0571,-0.0375, 0.3989, 0.0363, 2.5506,-1.4865, 0.9230
09-Sep-2020 11:19:13.995, 0.0967, 0.9790, 0.0477,-0.0141, 0.4667, 0.0453, 2.5527,-1.4859, 0.9211
09-Sep-2020 11:19:14.005, 0.0794, 0.9900, 0.0393, 0.0126, 0.5488, 0.0513, 2.5530,-1.4856, 0.9167
09-Sep-2020 11:19:14.015, 0.0565, 0.9940, 0.0302, 0.0296, 0.6205, 0.0508, 2.5519,-1.4854, 0.9102
09-Sep-2020 11:19:14.025, 0.0313, 0.9923, 0.0195, 0.0457, 0.6530, 0.0411, 2.5503,-1.4853, 0.9024
09-Sep-2020 11:19:14.035, 0.0108, 0.9880, 0.0100, 0.0642, 0.6634, 0.0304, 2.5488,-1.4855, 0.8945
09-Sep-2020 11:19:14.045,-0.0051, 0.9849, 0.0092, 0.0934, 0.6723, 0.0119, 2.5475,-1.4858, 0.8865
09-Sep-2020 11:19:14.055,-0.0146, 0.9834, 0.0175, 0.1258, 0.7151, 0.0002, 2.5459,-1.4865, 0.8781
09-Sep-2020 11:19:14.065,-0.0162, 0.9848, 0.0266, 0.1614, 0.7588,-0.0146, 2.5436,-1.4876, 0.8688
09-Sep-2020 11:19:14.075,-0.0154, 0.9872, 0.0406, 0.1873, 0.7878,-0.0196, 2.5406,-1.4889, 0.8581
09-Sep-2020 11:19:14.085,-0.0139, 0.9921, 0.0562, 0.2004, 0.7985,-0.0301, 2.5364,-1.4906, 0.8462
09-Sep-2020 11:19:14.095,-0.0141, 1.0003, 0.0690, 0.2037, 0.7893,-0.0395, 2.5321,-1.4924, 0.8339
09-Sep-2020 11:19:14.104,-0.0116, 1.0089, 0.0788, 0.1995, 0.7614,-0.0476, 2.5281,-1.4942, 0.8220
09-Sep-2020 11:19:14.115,-0.0092, 1.0158, 0.0867, 0.1856, 0.7051,-0.0486, 2.5245,-1.4961, 0.8108
09-Sep-2020 11:19:14.124,-0.0083, 1.0204, 0.0897, 0.1626, 0.6203,-0.0504, 2.5213,-1.4979, 0.8007
09-Sep-2020 11:19:14.135, 0.0030, 1.0172, 0.0878, 0.1426, 0.5207,-0.0511, 2.5190,-1.4995, 0.7922
09-Sep-2020 11:19:14.144, 0.0155, 1.0158, 0.0829, 0.1241, 0.4154,-0.0446, 2.5171,-1.5009, 0.7851
