Timestamp,accelX,accelY,accelZ,gyroX(rad/s),gyroY(rad/s),gyroZ(rad/s),Roll(rads),Pitch(rads),Yaw(rads)
09-Sep-2020 11:15:34.242,-0.3516,-0.3802,-0.8335,-0.4589,-0.0456,-0.4798,-0.3983, 0.4092,-1.4604
09-Sep-2020 11:15:34.252,-0.3474,-0.3600,-0.8510,-0.4046,-0.0407,-0.4915,-0.3961, 0.4068,-1.4671
09-Sep-2020 11:15:34.262,-0.4433,-0.3812,-0.8334,-0.3259,-0.0218,-0.6587,-0.3939, 0.4051,-1.4737
09-Sep-2020 11:15:34.272,-0.5141,-0.3805,-0.8279,-0.2355,-0.0586,-0.8311,-0.3911, 0.4046,-1.4816
09-Sep-2020 11:15:34.282,-0.5068,-0.3095,-0.8679,-0.0498,-0.0955,-0.9351,-0.3880, 0.4056,-1.4907
09-Sep-2020 11:15:34.292,-0.4464,-0.2997,-0.8799, 0.1487,-0.1286,-0.9047,-0.3853, 0.4086,-1.5001
09-Sep-2020 11:15:34.302,-0.3974,-0.3101,-0.8304, 0.2084,-0.1965,-0.8283,-0.3833, 0.4133,-1.5085
09-Sep-2020 11:15:34.312,-0.4158,-0.2782,-0.7809, 0.1720,-0.3173,-0.8096,-0.3823, 0.4183,-1.5160
09-Sep-2020 11:15:34.322,-0.4207,-0.3272,-0.7112, 0.0871,-0.2357,-0.8534,-0.3822, 0.4229,-1.5234
09-Sep-2020 11:15:34.331,-0.3840,-0.4295,-0.6257,-0.0580,-0.2336,-0.9215,-0.3813, 0.4268,-1.5317
09-Sep-2020 11:15:34.341,-0.3983,-0.3878,-0.6381,-0.2187,-0.3766,-1.0167,-0.3798, 0.4297,-1.5412
09-Sep-2020 11:15:34.352,-0.4688,-0.2887,-0.6795,-0.2224,-0.3332,-1.0935,-0.3788, 0.4315,-1.5523
09-Sep-2020 11:15:34.361,-0.5149,-0.2995,-0.7185,-0.0524,-0.1368,-1.1694,-0.3770, 0.4336,-1.5642
09-Sep-2020 11:15:34.371,-0.5203,-0.2978,-0.8289, 0.2571, 0.0409,-1.2209,-0.3733, 0.4374,-1.5762
09-Sep-2020 11:15:34.381,-0.4789,-0.3095,-0.9088, 0.5916, 0.2782,-1.1845,-0.3680, 0.4442,-1.5876
09-Sep-2020 11:15:34.391,-0.4119,-0.3770,-0.8918, 0.8059, 0.3585,-0.9758,-0.3612, 0.4538,-1.5973
09-Sep-2020 11:15:34.401,-0.1908,-0.4374,-0.8864, 0.7235, 0.2027,-0.4769,-0.3547, 0.4645,-1.6041
09-Sep-2020 11:15:34.411,-0.0764,-0.5076,-0.8108, 0.4504, 0.1020, 0.0163,-0.3518, 0.4728,-1.6063
09-Sep-2020 11:15:34.421,-0.2163,-0.6055,-0.7068, 0.2967, 0.1062, 0.1601,-0.3515, 0.4771,-1.6044
09-Sep-2020 11:15:34.431,-0.3699,-0.5426,-0.7657, 0.2032,-0.0321,-0.0129,-0.3516, 0.4793,-1.6017
09-Sep-2020 11:15:34.441,-0.4160,-0.3742,-0.8496, 0.3045,-0.1726,-0.1436,-0.3524, 0.4815,-1.6009
09-Sep-2020 11:15:34.451,-0.3525,-0.3647,-0.8357, 0.4754,-0.1748, 0.0248,-0.3540, 0.4848,-1.6009
09-Sep-2020 11:15:34.461,-0.2223,-0.4300,-0.9129, 0.7121, 0.0042, 0.4926,-0.3567, 0.4892,-1.5985
09-Sep-2020 11:15:34.471,-0.1967,-0.4520,-0.8570, 0.8943, 0.3752, 1.0181,-0.3604, 0.4940,-1.5903
09-Sep-2020 11:15:34.481,-0.2279,-0.3929,-0.8301, 0.9135, 0.4603, 1.4186,-0.3637, 0.4987,-1.5760
09-Sep-2020 11:15:34.491,-0.2717,-0.3558,-0.8373, 0.8237, 0.3902, 1.3892,-0.3681, 0.5022,-1.5575
09-Sep-2020 11:15:34.501,-0.4118,-0.3588,-0.8212, 0.8504, 0.2591, 1.1253,-0.3730, 0.5050,-1.5395
09-Sep-2020 11:15:34.511,-0.4601,-0.4472,-0.7960, 0.8588, 0.5711, 1.1100,-0.3777, 0.5087,-1.5237
09-Sep-2020 11:15:34.521,-0.3500,-0.5241,-0.6959, 0.8369, 0.7975, 1.0857,-0.3796, 0.5125,-1.5082
09-Sep-2020 11:15:34.531,-0.3717,-0.5612,-0.7126, 0.4259, 0.1993, 0.7077,-0.3798, 0.5162,-1.4934
09-Sep-2020 11:15:34.541,-0.6687,-0.6813,-0.4176,-0.4635,-0.4180,-0.0228,-0.3824, 0.5173,-1.4844
09-Sep-2020 11:15:34.551,-0.7135,-0.9015,-0.3241,-1.1421,-0.7254,-0.7041,-0.3853, 0.5133,-1.4865
09-Sep-2020 11:15:34.561,-0.5207,-0.8745,-0.4893,-1.2423,-0.7011,-0.7529,-0.3869, 0.5057,-1.4980
09-Sep-2020 11:15:34.571,-0.3047,-0.6575,-0.6756,-1.1649,-0.5935,-0.6336,-0.3876, 0.4971,-1.5110
09-Sep-2020 11:15:34.581,-0.3048,-0.5638,-0.8694,-0.9944,-0.8539,-0.6301,-0.3884, 0.4889,-1.5225
09-Sep-2020 11:15:34.590,-0.3663,-0.5811,-0.9116,-0.9023,-1.1959,-0.7892,-0.3920, 0.4821,-1.5334
09-Sep-2020 11:15:34.600,-0.4455,-0.5427,-0.9872,-0.7747,-1.5324,-0.9446,-0.3984, 0.4769,-1.5453
09-Sep-2020 11:15:34.610,-0.5348,-0.5192,-1.0096,-0.6665,-1.8086,-1.0082,-0.4077, 0.4734,-1.5583
09-Sep-2020 11:15:34.620,-0.5159,-0.5255,-1.0246,-0.6371,-2.0043,-1.0015,-0.4196, 0.4713,-1.5715
09-Sep-2020 11:15:34.630,-0.4624,-0.5531,-0.9177,-0.6824,-2.0863,-0.8961,-0.4336, 0.4696,-1.5845
09-Sep-2020 11:15:34.640,-0.4114,-0.5610,-0.8040,-0.5837,-2.0535,-0.7717,-0.4487, 0.4673,-1.5966
09-Sep-2020 11:15:34.650,-0.4746,-0.5517,-0.7879,-0.3686,-1.7708,-0.8201,-0.4642, 0.4656,-1.6072
09-Sep-2020 11:15:34.660,-0.5807,-0.4897,-0.7652,-0.0876,-1.4657,-0.9627,-0.4773, 0.4661,-1.6172
09-Sep-2020 11:15:34.670,-0.6120,-0.5168,-0.8567, 0.2196,-1.2477,-0.9998,-0.4877, 0.4697,-1.6270
09-Sep-2020 11:15:34.680,-0.5739,-0.7342,-0.8705, 0.4118,-1.2687,-0.9235,-0.4964, 0.4763,-1.6356
09-Sep-2020 11:15:34.690,-0.5537,-0.6714,-0.9516, 0.5856,-1.3177,-0.7984,-0.5058, 0.4843,-1.6424
09-Sep-2020 11:15:34.700,-0.5516,-0.6614,-0.9135, 0.8153,-1.3383,-0.7779,-0.5168, 0.4933,-1.6470
09-Sep-2020 11:15:34.710,-0.5077,-0.6399,-0.8611, 0.9437,-1.3196,-0.9382,-0.5284, 0.5041,-1.6502
09-Sep-2020 11:15:34.720,-0.5134,-0.4069,-0.8131, 1.0184,-1.6435,-1.1344,-0.5401, 0.5169,-1.6539
09-Sep-2020 11:15:34.730,-0.5112,-0.3329,-0.8257, 1.1359,-1.8455,-1.1844,-0.5540, 0.5315,-1.6588
09-Sep-2020 11:15:34.740,-0.5201,-0.4782,-0.7573, 1.1766,-1.8202,-1.1836,-0.5699, 0.5472,-1.6633
09-Sep-2020 11:15:34.750,-0.3398,-0.6923,-0.6312, 0.7618,-1.8513,-0.9059,-0.5856, 0.5630,-1.6672
09-Sep-2020 11:15:34.759,-0.2062,-0.7213,-0.6608, 0.1939,-2.7378,-1.0070,-0.6027, 0.5745,-1.6714
09-Sep-2020 11:15:34.769,-0.5535,-0.4570,-0.9133, 0.0511,-2.9130,-1.2473,-0.6251, 0.5821,-1.6795
09-Sep-2020 11:15:34.779,-0.5939,-0.4200,-0.8101, 0.1569,-2.9152,-1.5583,-0.6477, 0.5900,-1.6911
09-Sep-2020 11:15:34.789,-0.4602,-0.6126,-0.8311, 0.2628,-3.0480,-1.8761,-0.6692, 0.6007,-1.7047
09-Sep-2020 11:15:34.799,-0.3151,-0.7398,-0.7565, 0.5568,-2.9650,-2.0121,-0.6904, 0.6145,-1.7200
09-Sep-2020 11:15:34.809,-0.1411,-0.8926,-0.7266, 0.9631,-3.1675,-1.9808,-0.7119, 0.6317,-1.7342
09-Sep-2020 11:15:34.819,-0.1521,-0.8012,-0.8430, 1.2659,-3.4374,-2.0117,-0.7372, 0.6518,-1.7446
09-Sep-2020 11:15:34.829,-0.2939,-0.7261,-0.7464, 1.3958,-3.5511,-2.1229,-0.7668, 0.6746,-1.7523
09-Sep-2020 11:15:34.839,-0.4505,-0.6744,-0.7194, 1.2662,-3.6927,-2.2318,-0.7980, 0.6992,-1.7591
09-Sep-2020 11:15:34.849,-0.5946,-0.6566,-0.6652, 1.0925,-3.7040,-2.1770,-0.8295, 0.7239,-1.7669
09-Sep-2020 11:15:34.859,-0.6133,-0.6951,-0.5856, 0.8558,-3.7522,-2.0435,-0.8608, 0.7472,-1.7752
09-Sep-2020 11:15:34.869,-0.6138,-0.7262,-0.4940, 0.8049,-3.2163,-1.7374,-0.8917, 0.7683,-1.7837
09-Sep-2020 11:15:34.879,-0.5270,-0.8020,-0.1727, 0.8549,-2.2420,-1.1357,-0.9193, 0.7866,-1.7895
09-Sep-2020 11:15:34.889,-0.2913,-1.0367, 0.0894, 0.6938,-1.3389,-0.4972,-0.9417, 0.8006,-1.7894
09-Sep-2020 11:15:34.899,-0.3227,-0.9097, 0.1270, 0.2620,-0.7308,-0.2084,-0.9579, 0.8087,-1.7858
09-Sep-2020 11:15:34.909,-0.5212,-0.7464, 0.1757,-0.1335, 0.0177,-0.1819,-0.9661, 0.8120,-1.7845
09-Sep-2020 11:15:34.919,-0.5561,-0.7746, 0.0335,-0.0814, 0.5728,-0.1835,-0.9645, 0.8130,-1.7870
09-Sep-2020 11:15:34.929,-0.5592,-0.7740,-0.2069, 0.1194, 1.0241,-0.3200,-0.9575, 0.8142,-1.7894
09-Sep-2020 11:15:34.939,-0.6017,-0.6796,-0.1872, 0.1224, 1.2640,-0.6129,-0.9466, 0.8175,-1.7907
09-Sep-2020 11:15:34.949,-0.6210,-0.5623,-0.2359,-0.3148, 0.5767,-0.7570,-0.9312, 0.8230,-1.7945
09-Sep-2020 11:15:34.959,-0.6404,-0.4994,-0.3764,-0.9100, 0.8533,-0.5492,-0.9148, 0.8267,-1.8047
09-Sep-2020 11:15:34.969,-0.6497,-0.7140,-0.2727,-0.8382, 1.0178, 0.0829,-0.8953, 0.8252,-1.8193
09-Sep-2020 11:15:34.979,-0.5294,-1.0073,-0.5427,-0.5286, 1.2712, 0.5567,-0.8796, 0.8195,-1.8278
09-Sep-2020 11:15:34.988,-0.3742,-1.0815,-0.1455,-0.6888, 2.1027, 0.7796,-0.8657, 0.8117,-1.8290
09-Sep-2020 11:15:34.999,-0.2971,-0.9502, 0.1488,-0.6183, 2.2053, 0.9473,-0.8453, 0.8015,-1.8288
09-Sep-2020 11:15:35.008,-0.4193,-0.6358,-0.6342,-0.3685, 1.3954, 0.7961,-0.8258, 0.7906,-1.8263
09-Sep-2020 11:15:35.019,-0.6300,-0.4916,-0.9463,-0.2929, 0.7738, 0.4848,-0.8143, 0.7822,-1.8225
09-Sep-2020 11:15:35.028,-0.5085,-0.4973,-0.6162,-0.4358, 0.3369, 0.2157,-0.8077, 0.7766,-1.8209
09-Sep-2020 11:15:35.039,-0.3520,-0.5307,-0.4125,-0.5038,-0.0459, 0.1376,-0.8029, 0.7719,-1.8229
09-Sep-2020 11:15:35.049,-0.2891,-0.5647,-0.4486,-0.5011,-0.4184, 0.1318,-0.8009, 0.7674,-1.8264
09-Sep-2020 11:15:35.058,-0.2615,-0.5943,-0.4706,-0.5612,-0.7393, 0.0771,-0.8024, 0.7630,-1.8300
09-Sep-2020 11:15:35.068,-0.2654,-0.5987,-0.4501,-0.6974,-0.9964,-0.0514,-0.8065, 0.7586,-1.8348
09-Sep-2020 11:15:35.078,-0.3263,-0.6520,-0.4354,-0.7658,-1.0655,-0.1584,-0.8114, 0.7541,-1.8421
09-Sep-2020 11:15:35.089,-0.4455,-0.7180,-0.4281,-0.7265,-0.8108,-0.1468,-0.8157, 0.7500,-1.8509
09-Sep-2020 11:15:35.098,-0.4465,-0.7414,-0.3097,-0.7628,-0.1549,-0.0239,-0.8180, 0.7460,-1.8593
09-Sep-2020 11:15:35.108,-0.4812,-0.7950,-0.2036,-1.0775, 0.4312, 0.0491,-0.8140, 0.7408,-1.8674
09-Sep-2020 11:15:35.118,-0.4169,-0.7722,-0.1475,-1.2193, 1.2477, 0.3789,-0.8027, 0.7330,-1.8770
09-Sep-2020 11:15:35.128,-0.2976,-0.7604, 0.0358,-1.3510, 2.2467, 0.8088,-0.7849, 0.7217,-1.8849
09-Sep-2020 11:15:35.138,-0.3381,-0.7809, 0.0772,-1.5007, 3.2253, 1.1544,-0.7595, 0.7065,-1.8896
09-Sep-2020 11:15:35.148,-0.4420,-0.6628,-0.0369,-1.7068, 4.1935, 1.2306,-0.7260, 0.6878,-1.8919
09-Sep-2020 11:15:35.158,-0.5237,-0.5366,-0.1916,-1.9170, 4.9441, 1.0716,-0.6830, 0.6670,-1.8941
09-Sep-2020 11:15:35.168,-0.5691,-0.3185,-0.2765,-2.1303, 5.4218, 0.7417,-0.6315, 0.6454,-1.8981
09-Sep-2020 11:15:35.178,-0.5500,-0.0545,-0.3434,-2.3490, 5.5392, 0.2633,-0.5734, 0.6238,-1.9055
09-Sep-2020 11:15:35.188,-0.3994, 0.1253,-0.5252,-2.5275, 5.1610,-0.3374,-0.5117, 0.6025,-1.9175
09-Sep-2020 11:15:35.198,-0.3195, 0.1433,-0.6443,-2.2709, 4.1930,-0.7709,-0.4508, 0.5818,-1.9350
09-Sep-2020 11:15:35.208,-0.2812,-0.2386,-1.0168,-1.5565, 3.4826,-0.5843,-0.3987, 0.5644,-1.9535
09-Sep-2020 11:15:35.217,-0.2157,-0.5581,-0.9873,-1.1703, 3.2223,-0.4385,-0.3570, 0.5521,-1.9666
09-Sep-2020 11:15:35.227,-0.1123,-0.5208,-1.0378,-1.1722, 2.2645,-0.4906,-0.3205, 0.5424,-1.9761
09-Sep-2020 11:15:35.237,-0.2590,-0.5354,-1.1532,-1.2341, 1.0163,-0.6318,-0.2933, 0.5327,-1.9857
09-Sep-2020 11:15:35.247,-0.2740,-0.5263,-1.2560,-1.2228, 0.1901,-0.6272,-0.2775, 0.5227,-1.9964
09-Sep-2020 11:15:35.258,-0.3084,-0.4590,-1.2371,-1.2299,-0.2505,-0.7902,-0.2700, 0.5127,-2.0072
09-Sep-2020 11:15:35.268,-0.4302,-0.3893,-1.0828,-1.2432,-0.0747,-1.0186,-0.2661, 0.5030,-2.0195
09-Sep-2020 11:15:35.277,-0.4320,-0.4183,-0.8664,-1.1951, 0.4642,-1.0793,-0.2597, 0.4937,-2.0341
09-Sep-2020 11:15:35.287,-0.3897,-0.5395,-0.7746,-0.9158, 1.0690,-1.1436,-0.2480, 0.4851,-2.0492
09-Sep-2020 11:15:35.298,-0.3325,-0.6879,-1.0456,-0.5928, 1.7049,-1.2239,-0.2307, 0.4790,-2.0639
09-Sep-2020 11:15:35.307,-0.4639,-0.6812,-0.7401,-0.7938, 2.1159,-1.3479,-0.2071, 0.4756,-2.0788
09-Sep-2020 11:15:35.317,-0.3598,-0.6381,-0.6054,-1.2037, 1.6880,-1.2655,-0.1792, 0.4703,-2.0951
09-Sep-2020 11:15:35.327,-0.1913,-0.7836,-0.8806,-1.6104, 1.1981,-1.1131,-0.1552, 0.4606,-2.1110
09-Sep-2020 11:15:35.337,-0.2622,-0.9188,-0.9184,-2.0026, 1.2725,-1.1998,-0.1364, 0.4464,-2.1260
09-Sep-2020 11:15:35.347,-0.3670,-0.9519,-0.9074,-2.1985, 1.6628,-1.4599,-0.1169, 0.4283,-2.1418
09-Sep-2020 11:15:35.357,-0.3667,-0.8356,-0.9908,-2.2199, 1.9928,-1.8142,-0.0930, 0.4082,-2.1601
09-Sep-2020 11:15:35.367,-0.4151,-0.6185,-1.0380,-1.9989, 2.3611,-2.1150,-0.0649, 0.3878,-2.1814
09-Sep-2020 11:15:35.377,-0.3537,-0.5163,-1.0759,-1.4651, 2.6363,-2.1906,-0.0326, 0.3691,-2.2049
09-Sep-2020 11:15:35.387,-0.1698,-0.5649,-1.3119,-0.3412, 1.5197,-1.9405,-0.0004, 0.3561,-2.2280
09-Sep-2020 11:15:35.397,-0.0100,-0.6982,-1.0396,-0.5435, 1.1343,-1.7250, 0.0222, 0.3517,-2.2485
09-Sep-2020 11:15:35.407,-0.0552,-0.7924,-0.8247,-0.8658, 0.0144,-1.5948, 0.0391, 0.3457,-2.2665
09-Sep-2020 11:15:35.417,-0.2348,-0.8720,-0.9530,-1.0073,-1.2454,-1.6115, 0.0447, 0.3366,-2.2830
09-Sep-2020 11:15:35.427,-0.3002,-0.8933,-1.0955,-0.8545,-1.9892,-1.9006, 0.0380, 0.3261,-2.2996
09-Sep-2020 11:15:35.437,-0.3251,-0.7335,-1.1717,-0.5189,-2.1575,-2.4080, 0.0248, 0.3172,-2.3193
09-Sep-2020 11:15:35.446,-0.3494,-0.5094,-1.1717,-0.1683,-2.0639,-2.8750, 0.0112, 0.3116,-2.3443
09-Sep-2020 11:15:35.456,-0.3490,-0.3573,-1.0668, 0.1834,-1.6551,-3.1815, 0.0000, 0.3099,-2.3742
09-Sep-2020 11:15:35.466,-0.3085,-0.2541,-0.8911, 0.5288,-1.0952,-3.4226,-0.0062, 0.3118,-2.4073
09-Sep-2020 11:15:35.476,-0.2889,-0.1549,-0.8484, 0.8366,-0.6799,-3.6730,-0.0062, 0.3174,-2.4430
09-Sep-2020 11:15:35.486,-0.2971,-0.0800,-0.8607, 1.0719,-0.3718,-3.8835,-0.0009, 0.3258,-2.4814
09-Sep-2020 11:15:35.497,-0.2300,-0.1017,-0.8434, 1.2001,-0.1333,-3.9933, 0.0086, 0.3363,-2.5222
09-Sep-2020 11:15:35.506,-0.1264,-0.2136,-0.8510, 1.1500,-0.2577,-4.0097, 0.0212, 0.3476,-2.5645
09-Sep-2020 11:15:35.516,-0.0003,-0.3243,-0.9811, 0.9773,-0.8889,-3.9725, 0.0330, 0.3579,-2.6072
09-Sep-2020 11:15:35.526, 0.1013,-0.2302,-1.0361, 0.8036,-1.0987,-3.9502, 0.0396, 0.3662,-2.6498
09-Sep-2020 11:15:35.536, 0.0967,-0.0509,-0.8231, 0.7155,-0.5564,-3.8099, 0.0445, 0.3727,-2.6921
09-Sep-2020 11:15:35.546, 0.0622, 0.0308,-0.6375, 0.4543, 0.3323,-3.5132, 0.0541, 0.3778,-2.7330
09-Sep-2020 11:15:35.556, 0.0341, 0.1189,-0.5092, 0.1167, 1.2556,-3.0763, 0.0714, 0.3802,-2.7707
09-Sep-2020 11:15:35.566, 0.1146, 0.0107,-0.5245,-0.1477, 1.5241,-2.5330, 0.0956, 0.3789,-2.8035
09-Sep-2020 11:15:35.576, 0.2427,-0.1456,-0.6502,-0.4487, 0.9946,-2.0440, 0.1201, 0.3748,-2.8302
09-Sep-2020 11:15:35.586, 0.2988,-0.1681,-0.6696,-0.7896, 0.1638,-1.7500, 0.1374, 0.3677,-2.8513
09-Sep-2020 11:15:35.596, 0.2642,-0.1041,-0.5992,-1.0351,-0.6510,-1.6046, 0.1452, 0.3576,-2.8686
09-Sep-2020 11:15:35.606, 0.2355,-0.0392,-0.6330,-1.2415,-1.6612,-1.5326, 0.1438, 0.3451,-2.8838
09-Sep-2020 11:15:35.616, 0.2467,-0.0568,-0.7111,-1.4310,-2.4681,-1.4754, 0.1321, 0.3308,-2.8980
09-Sep-2020 11:15:35.626, 0.3014,-0.0675,-0.7805,-1.5787,-2.6067,-1.4227, 0.1122, 0.3149,-2.9114
09-Sep-2020 11:15:35.636, 0.3124,-0.0350,-0.7972,-1.5885,-2.1608,-1.2327, 0.0906, 0.2980,-2.9244
09-Sep-2020 11:15:35.645, 0.3009,-0.0307,-0.8613,-1.5312,-1.7453,-0.9204, 0.0723, 0.2814,-2.9357
09-Sep-2020 11:15:35.656, 0.2782,-0.0254,-0.9180,-1.4380,-1.3133,-0.5976, 0.0572, 0.2656,-2.9440
09-Sep-2020 11:15:35.666, 0.2505,-0.0320,-0.8419,-1.3689,-0.6810,-0.3927, 0.0456, 0.2510,-2.9494
09-Sep-2020 11:15:35.676, 0.1951,-0.0306,-0.7358,-1.3985,-0.0233,-0.3795, 0.0397, 0.2372,-2.9529
09-Sep-2020 11:15:35.686, 0.1354, 0.0199,-0.7450,-1.5363, 0.3926,-0.5442, 0.0401, 0.2231,-2.9563
09-Sep-2020 11:15:35.695, 0.1051, 0.0739,-0.8370,-1.7116, 0.4652,-0.8038, 0.0448, 0.2076,-2.9611
09-Sep-2020 11:15:35.706, 0.1606, 0.0388,-0.9173,-1.8111, 0.5081,-0.9547, 0.0508, 0.1903,-2.9683
09-Sep-2020 11:15:35.716, 0.2874,-0.0952,-0.9212,-1.8320, 0.6264,-0.8913, 0.0574, 0.1719,-2.9768
09-Sep-2020 11:15:35.725, 0.3489,-0.1656,-0.9322,-1.8067, 0.6680,-0.7227, 0.0649, 0.1533,-2.9845
09-Sep-2020 11:15:35.735, 0.3320,-0.1454,-0.9951,-1.7483, 0.5407,-0.5873, 0.0722, 0.1349,-2.9905
09-Sep-2020 11:15:35.745, 0.2922,-0.1139,-1.0304,-1.6832, 0.4319,-0.4925, 0.0782, 0.1171,-2.9950
09-Sep-2020 11:15:35.755, 0.2549,-0.1180,-0.9946,-1.6143, 0.3718,-0.4398, 0.0829, 0.1001,-2.9985
09-Sep-2020 11:15:35.766, 0.2074,-0.1062,-0.9627,-1.5474, 0.1522,-0.4512, 0.0868, 0.0838,-3.0015
09-Sep-2020 11:15:35.775, 0.1674,-0.0665,-0.9611,-1.4620,-0.3736,-0.5159, 0.0883, 0.0681,-3.0046
09-Sep-2020 11:15:35.785, 0.1712,-0.0403,-1.0839,-1.2937,-1.2582,-0.5898, 0.0845, 0.0532,-3.0084
09-Sep-2020 11:15:35.795, 0.2245,-0.0676,-1.2565,-1.0361,-2.0609,-0.5940, 0.0722, 0.0400,-3.0131
09-Sep-2020 11:15:35.805, 0.2313,-0.1038,-1.2733,-0.7987,-2.1883,-0.5437, 0.0523, 0.0294,-3.0183
09-Sep-2020 11:15:35.815, 0.1311,-0.0998,-1.1371,-0.7069,-1.4863,-0.4426, 0.0312, 0.0212,-3.0233
09-Sep-2020 11:15:35.825, 0.0430,-0.0557,-0.9855,-0.7924,-0.3149,-0.3776, 0.0168, 0.0140,-3.0274
09-Sep-2020 11:15:35.835,-0.0598, 0.0159,-0.9481,-0.9989, 0.5843,-0.4177, 0.0135, 0.0060,-3.0311
09-Sep-2020 11:15:35.845,-0.1595, 0.0795,-1.0629,-1.2189, 0.7984,-0.5610, 0.0189,-0.0040,-3.0351
09-Sep-2020 11:15:35.855,-0.1123, 0.0424,-1.2424,-1.3148, 0.4737,-0.6355, 0.0264,-0.0161,-3.0403
09-Sep-2020 11:15:35.865, 0.0226,-0.0252,-1.3602,-1.2678, 0.0831,-0.5710, 0.0309,-0.0292,-3.0461
09-Sep-2020 11:15:35.875, 0.0731,-0.0107,-1.3555,-1.1420,-0.0848,-0.4388, 0.0317,-0.0420,-3.0513
09-Sep-2020 11:15:35.885, 0.0394, 0.0269,-1.2751,-0.9700, 0.1636,-0.2268, 0.0310,-0.0534,-3.0551
09-Sep-2020 11:15:35.895, 0.0464, 0.0243,-1.2121,-0.7862, 0.5298,-0.0635, 0.0326,-0.0631,-3.0571
09-Sep-2020 11:15:35.904, 0.0169, 0.1096,-1.2074,-0.6546, 0.8846,-0.0175, 0.0378,-0.0709,-3.0574
09-Sep-2020 11:15:35.915,-0.0061, 0.1951,-1.1660,-0.5897, 1.0949,-0.0367, 0.0466,-0.0774,-3.0573
09-Sep-2020 11:15:35.924, 0.0152, 0.2604,-1.0591,-0.7730, 0.8742,-0.0470, 0.0572,-0.0834,-3.0573
09-Sep-2020 11:15:35.937, 0.0832, 0.2776,-0.9100,-1.0650, 0.3459, 0.0140, 0.0657,-0.0911,-3.0571
09-Sep-2020 11:15:35.944, 0.1513, 0.2002,-0.8870,-1.3798,-0.3238, 0.1550, 0.0691,-0.1016,-3.0561
09-Sep-2020 11:15:35.954, 0.1689, 0.1485,-0.8544,-1.7577,-0.9968, 0.3465, 0.0662,-0.1152,-3.0535
09-Sep-2020 11:15:35.964, 0.1843, 0.1242,-0.7808,-2.3341,-1.5660, 0.5469, 0.0569,-0.1326,-3.0489
09-Sep-2020 11:15:35.974, 0.2070, 0.1011,-0.7807,-2.7046,-2.1366, 0.7605, 0.0422,-0.1553,-3.0422
09-Sep-2020 11:15:35.984, 0.1892,-0.0156,-0.9698,-2.8678,-2.5333, 0.9958, 0.0225,-0.1818,-3.0336
09-Sep-2020 11:15:35.994, 0.1557, 0.0445,-0.9759,-2.8964,-2.6335, 1.2815,-0.0005,-0.2101,-3.0230
09-Sep-2020 11:15:36.004, 0.1292, 0.1746,-0.9502,-2.7066,-2.4027, 1.5737,-0.0237,-0.2389,-3.0102
09-Sep-2020 11:15:36.014, 0.0565, 0.3235,-1.0041,-2.3428,-1.9014, 1.7794,-0.0436,-0.2663,-2.9950
09-Sep-2020 11:15:36.024,-0.0433, 0.4345,-1.0080,-1.8890,-1.1955, 1.8606,-0.0577,-0.2904,-2.9778
09-Sep-2020 11:15:36.033,-0.1473, 0.5568,-1.1033,-1.3750,-0.5844, 1.8379,-0.0643,-0.3102,-2.9596
09-Sep-2020 11:15:36.044,-0.2285, 0.6844,-1.2320,-0.8090,-0.1442, 1.7445,-0.0645,-0.3250,-2.9413
09-Sep-2020 11:15:36.053,-0.2442, 0.7166,-1.2722,-0.2081, 0.1688, 1.6049,-0.0602,-0.3340,-2.9235
09-Sep-2020 11:15:36.063,-0.1847, 0.6438,-1.1980, 0.4001, 0.4965, 1.4482,-0.0530,-0.3369,-2.9067
09-Sep-2020 11:15:36.073,-0.0873, 0.4872,-1.0518, 0.9867, 1.0991, 1.2924,-0.0428,-0.3336,-2.8911
09-Sep-2020 11:15:36.083, 0.0744, 0.3834,-0.9206, 1.6579, 1.6273, 1.3080,-0.0274,-0.3242,-2.8770
09-Sep-2020 11:15:36.093, 0.2650, 0.3128,-1.0507, 2.5378, 2.3267, 1.4286,-0.0064,-0.3078,-2.8629
09-Sep-2020 11:15:36.103, 0.3799, 0.1791,-1.3088, 3.5583, 2.4242, 1.7019, 0.0205,-0.2823,-2.8480
09-Sep-2020 11:15:36.113, 0.3773, 0.2018,-1.4203, 4.4711, 2.4009, 1.9478, 0.0489,-0.2463,-2.8317
09-Sep-2020 11:15:36.123, 0.2915, 0.2081,-1.2604, 5.1769, 2.4387, 2.1179, 0.0766,-0.2008,-2.8147
09-Sep-2020 11:15:36.133, 0.2072, 0.1875,-1.1651, 4.6041,-0.3393, 1.6178, 0.1021,-0.1482,-2.7982
09-Sep-2020 11:15:36.143, 0.3362, 0.0910,-1.6117, 2.7331,-5.2084, 0.1713, 0.0979,-0.1023,-2.7877
09-Sep-2020 11:15:36.153, 0.4664,-0.5074,-0.8067, 2.3175,-5.3064, 0.0360, 0.0498,-0.0738,-2.7870
09-Sep-2020 11:15:36.163, 0.1121,-0.3754,-0.2058, 2.0023,-5.0519, 0.1243,-0.0030,-0.0506,-2.7870
09-Sep-2020 11:15:36.173,-0.0714,-0.0598,-0.7026, 1.3843,-5.4212, 0.1076,-0.0536,-0.0310,-2.7853
09-Sep-2020 11:15:36.183,-0.0397,-0.0551,-0.9207, 0.8607,-4.4288, 0.0136,-0.1064,-0.0172,-2.7831
09-Sep-2020 11:15:36.193,-0.0851,-0.0576,-0.8319, 0.6252,-1.8157,-0.0873,-0.1494,-0.0085,-2.7817
09-Sep-2020 11:15:36.203,-0.1858, 0.0081,-0.7111, 0.5001, 0.1776,-0.0872,-0.1680,-0.0022,-2.7815
09-Sep-2020 11:15:36.213,-0.3456, 0.1898,-1.0113, 0.1056, 1.1704, 0.1459,-0.1667, 0.0027,-2.7813
09-Sep-2020 11:15:36.223,-0.3438, 0.2526,-0.8765,-0.4641, 1.7092, 0.4509,-0.1554, 0.0033,-2.7796
09-Sep-2020 11:15:36.237,-0.3413, 0.3228,-0.8897,-0.7254, 2.1686, 0.3721,-0.1384,-0.0016,-2.7760
09-Sep-2020 11:15:36.242,-0.3039, 0.2782,-0.9902,-0.6583, 2.0118, 0.0637,-0.1171,-0.0090,-2.7732
09-Sep-2020 11:15:36.253,-0.1945, 0.1592,-1.3897,-0.3117, 0.9971,-0.1489,-0.0978,-0.0154,-2.7732
09-Sep-2020 11:15:36.262, 0.0184, 0.0521,-1.3729, 0.0531, 0.2689,-0.0946,-0.0877,-0.0183,-2.7747
09-Sep-2020 11:15:36.273, 0.1473, 0.0292,-1.2032, 0.2556,-0.2492, 0.1084,-0.0850,-0.0178,-2.7754
09-Sep-2020 11:15:36.282, 0.1009, 0.0221,-1.0280, 0.1836,-0.2509, 0.3185,-0.0871,-0.0155,-2.7741
09-Sep-2020 11:15:36.292, 0.0213, 0.0335,-0.8157,-0.0670, 0.1937, 0.4746,-0.0892,-0.0140,-2.7707
09-Sep-2020 11:15:36.302,-0.0379,-0.0260,-0.7064,-0.4159, 0.7662, 0.5402,-0.0872,-0.0151,-2.7660
09-Sep-2020 11:15:36.312,-0.1304,-0.0595,-0.6806,-0.6846, 1.1631, 0.4704,-0.0796,-0.0196,-2.7611
09-Sep-2020 11:15:36.322,-0.1495,-0.0498,-0.7718,-0.7857, 1.2860, 0.3138,-0.0681,-0.0266,-2.7569
09-Sep-2020 11:15:36.332,-0.1738,-0.0087,-0.8878,-0.7295, 1.0717, 0.0816,-0.0555,-0.0345,-2.7542
09-Sep-2020 11:15:36.342,-0.2128, 0.0322,-1.0083,-0.5299, 0.6303,-0.1714,-0.0449,-0.0417,-2.7537
09-Sep-2020 11:15:36.352,-0.1917, 0.0549,-1.0737,-0.2916, 0.0528,-0.3902,-0.0388,-0.0468,-2.7555
09-Sep-2020 11:15:36.362,-0.1625, 0.0912,-1.0575,-0.1742,-0.4703,-0.5780,-0.0385,-0.0496,-2.7594
09-Sep-2020 11:15:36.372,-0.1747, 0.1237,-0.9935,-0.1684,-0.7463,-0.6612,-0.0433,-0.0512,-2.7652
09-Sep-2020 11:15:36.382,-0.0427, 0.0940,-1.0372,-0.1237,-0.9057,-0.4504,-0.0510,-0.0525,-2.7716
09-Sep-2020 11:15:36.392, 0.2408, 0.0528,-1.2061, 0.2132,-1.7091, 0.1260,-0.0607,-0.0532,-2.7757
09-Sep-2020 11:15:36.402, 0.3851, 0.0652,-1.4752, 0.4445,-2.2594, 0.3357,-0.0774,-0.0513,-2.7746
09-Sep-2020 11:15:36.412, 0.0491, 0.1396,-1.2751, 0.8163,-2.3952, 0.3064,-0.0995,-0.0469,-2.7709
09-Sep-2020 11:15:36.422,-0.0518, 0.1422,-1.2893, 0.9217,-2.2862, 0.2200,-0.1230,-0.0393,-2.7669
09-Sep-2020 11:15:36.432,-0.1375, 0.0861,-1.0533, 0.8367,-1.9186, 0.1679,-0.1455,-0.0306,-2.7635
09-Sep-2020 11:15:36.442,-0.1676, 0.0712,-0.9763, 0.6877,-1.5531, 0.1063,-0.1645,-0.0227,-2.7605
09-Sep-2020 11:15:36.452,-0.2309, 0.0595,-0.9588, 0.5453,-1.1594, 0.0002,-0.1799,-0.0161,-2.7582
09-Sep-2020 11:15:36.462,-0.2627, 0.0190,-0.9250, 0.4679,-0.6580,-0.0576,-0.1914,-0.0107,-2.7571
09-Sep-2020 11:15:36.471,-0.2512,-0.0090,-0.9327, 0.4514,-0.3511,-0.0480,-0.1981,-0.0060,-2.7566
09-Sep-2020 11:15:36.481,-0.2574,-0.0472,-1.0102, 0.4085,-0.2231,-0.0184,-0.2017,-0.0015,-2.7561
09-Sep-2020 11:15:36.492,-0.2512,-0.0862,-0.9823, 0.2717,-0.0965, 0.0205,-0.2039, 0.0025,-2.7554
09-Sep-2020 11:15:36.501,-0.2331,-0.1133,-0.8759, 0.0198, 0.1346, 0.0586,-0.2048, 0.0051,-2.7546
09-Sep-2020 11:15:36.511,-0.2238,-0.1252,-0.7439,-0.3208, 0.4973, 0.0808,-0.2034, 0.0051,-2.7539
09-Sep-2020 11:15:36.521,-0.1922,-0.1232,-0.6671,-0.5896, 0.8060, 0.1588,-0.1984, 0.0019,-2.7536
09-Sep-2020 11:15:36.532,-0.1072,-0.0907,-0.7730,-0.6790, 0.7493, 0.2300,-0.1907,-0.0041,-2.7531
09-Sep-2020 11:15:36.541,-0.0699,-0.0205,-0.9607,-0.5483, 0.3939, 0.2353,-0.1834,-0.0110,-2.7520
09-Sep-2020 11:15:36.551,-0.0606, 0.0397,-1.1119,-0.2500,-0.1104, 0.1898,-0.1796,-0.0167,-2.7507
09-Sep-2020 11:15:36.561,-0.0441, 0.0874,-1.1633, 0.0917,-0.5179, 0.1371,-0.1806,-0.0194,-2.7492
09-Sep-2020 11:15:36.571,-0.0726, 0.0850,-1.1663, 0.3345,-0.8910, 0.0828,-0.1857,-0.0188,-2.7476
09-Sep-2020 11:15:36.581,-0.1320, 0.0636,-1.1588, 0.4591,-1.0939, 0.0506,-0.1945,-0.0157,-2.7461
09-Sep-2020 11:15:36.591,-0.2200, 0.0360,-0.9790, 0.2175, 0.1909, 0.3110,-0.2037,-0.0120,-2.7442
09-Sep-2020 11:15:36.601,-0.4649, 0.1024,-0.8809, 0.2216, 0.6911,-0.0587,-0.2024,-0.0101,-2.7412
09-Sep-2020 11:15:36.611,-0.4169, 0.0943,-1.0760, 0.0058, 0.5089,-0.0418,-0.1960,-0.0081,-2.7410
09-Sep-2020 11:15:36.621,-0.3214, 0.0270,-1.0720,-0.0894, 0.4858,-0.0274,-0.1908,-0.0078,-2.7413
09-Sep-2020 11:15:36.631,-0.2554,-0.0369,-1.0778,-0.0961, 0.3142, 0.0017,-0.1862,-0.0086,-2.7416
09-Sep-2020 11:15:36.641,-0.2044,-0.0457,-1.0789,-0.1644, 0.1797, 0.0264,-0.1830,-0.0095,-2.7417
09-Sep-2020 11:15:36.651,-0.2247,-0.0949,-1.0198,-0.2749, 0.2031, 0.0306,-0.1811,-0.0112,-2.7417
09-Sep-2020 11:15:36.661,-0.2251,-0.1261,-0.9618,-0.3902, 0.3607, 0.0740,-0.1790,-0.0139,-2.7418
09-Sep-2020 11:15:36.671,-0.2070,-0.1066,-0.9254,-0.4688, 0.5331, 0.1397,-0.1754,-0.0178,-2.7417
09-Sep-2020 11:15:36.681,-0.1770,-0.0708,-0.9761,-0.4086, 0.5467, 0.2831,-0.1702,-0.0226,-2.7410
09-Sep-2020 11:15:36.691,-0.1309,-0.0769,-1.0660,-0.2249, 0.3002, 0.4524,-0.1649,-0.0269,-2.7388
09-Sep-2020 11:15:36.701,-0.0837,-0.0493,-1.1723,-0.0476,-0.1035, 0.5080,-0.1620,-0.0298,-2.7347
09-Sep-2020 11:15:36.711,-0.0895,-0.0380,-1.1961, 0.1253,-0.3301, 0.5024,-0.1627,-0.0311,-2.7298
09-Sep-2020 11:15:36.721,-0.1219,-0.0781,-1.1317, 0.2641,-0.3009, 0.4636,-0.1657,-0.0307,-2.7246
09-Sep-2020 11:15:36.730,-0.1307,-0.1508,-1.0807, 0.3423,-0.2903, 0.3704,-0.1685,-0.0289,-2.7196
09-Sep-2020 11:15:36.740,-0.0533,-0.3006,-1.2102, 0.3076,-0.4707, 0.4735,-0.1717,-0.0262,-2.7151
09-Sep-2020 11:15:36.750, 0.0064,-0.2382,-1.0879, 0.2290,-0.1183, 0.4295,-0.1759,-0.0240,-2.7100
09-Sep-2020 11:15:36.760,-0.1663,-0.0516,-0.9738, 0.0815, 0.1834, 0.3637,-0.1770,-0.0225,-2.7053
09-Sep-2020 11:15:36.770,-0.2329, 0.0433,-0.9876,-0.1664, 0.3611, 0.3246,-0.1751,-0.0224,-2.7016
09-Sep-2020 11:15:36.780,-0.2254, 0.0573,-0.9845,-0.4367, 0.4123, 0.3033,-0.1716,-0.0245,-2.6986
09-Sep-2020 11:15:36.790,-0.2271, 0.0109,-0.9844,-0.7056, 0.3812, 0.2546,-0.1675,-0.0293,-2.6963
09-Sep-2020 11:15:36.800,-0.1973,-0.0348,-0.9849,-0.8946, 0.3225, 0.2073,-0.1637,-0.0366,-2.6948
09-Sep-2020 11:15:36.810,-0.1657,-0.0666,-1.0313,-0.9536, 0.2475, 0.1552,-0.1604,-0.0456,-2.6942
09-Sep-2020 11:15:36.820,-0.1294,-0.0834,-1.0809,-0.9417, 0.1384, 0.0991,-0.1580,-0.0552,-2.6941
09-Sep-2020 11:15:36.830,-0.1151,-0.0801,-1.0748,-0.8994, 0.0917, 0.0639,-0.1566,-0.0645,-2.6945
09-Sep-2020 11:15:36.840,-0.1327,-0.0597,-1.0712,-0.8283, 0.1328, 0.0520,-0.1557,-0.0734,-2.6951
09-Sep-2020 11:15:36.849,-0.1601,-0.0268,-1.0823,-0.7736, 0.2471, 0.0367,-0.1544,-0.0817,-2.6958
09-Sep-2020 11:15:36.859,-0.1873,-0.0049,-1.1080,-0.8146, 0.3353,-0.0073,-0.1520,-0.0894,-2.6966
09-Sep-2020 11:15:36.870,-0.1993,-0.0017,-1.1324,-0.9574, 0.3475,-0.0657,-0.1488,-0.0974,-2.6978
09-Sep-2020 11:15:36.879,-0.1929, 0.0069,-1.1443,-1.1619, 0.2454,-0.1364,-0.1457,-0.1067,-2.6998
09-Sep-2020 11:15:36.889,-0.1693, 0.0224,-1.1351,-1.4289, 0.0251,-0.2127,-0.1436,-0.1180,-2.7028
09-Sep-2020 11:15:36.899,-0.1544, 0.0442,-1.1099,-1.6887,-0.2033,-0.3090,-0.1439,-0.1318,-2.7069
09-Sep-2020 11:15:36.909,-0.1366, 0.0453,-1.0635,-1.6887,-0.2033,-0.3090,-0.1466,-0.1479,-2.7123
09-Sep-2020 11:15:36.919,-0.1281, 0.0442,-1.0134,-1.9043,-0.1998,-0.4625,-0.1504,-0.1655,-2.7189
09-Sep-2020 11:15:36.929,-0.1198, 0.0689,-0.9964,-1.8430,-0.0279,-0.4929,-0.1536,-0.1834,-2.7263
09-Sep-2020 11:15:36.939,-0.1003, 0.0872,-0.9872,-1.6774, 0.1284,-0.4761,-0.1554,-0.2007,-2.7340
09-Sep-2020 11:15:36.949,-0.0970, 0.0884,-1.0050,-1.4000, 0.1827,-0.4203,-0.1557,-0.2163,-2.7413
09-Sep-2020 11:15:36.959,-0.1032, 0.0999,-1.0328,-1.0667, 0.2132,-0.3353,-0.1553,-0.2294,-2.7476
09-Sep-2020 11:15:36.969,-0.0983, 0.1232,-1.0209,-0.6929, 0.1864,-0.2559,-0.1544,-0.2393,-2.7526
09-Sep-2020 11:15:36.979,-0.0892, 0.1415,-0.9944,-0.3473, 0.1902,-0.2866,-0.1534,-0.2457,-2.7563
09-Sep-2020 11:15:36.989,-0.0872, 0.1611,-0.9397,-0.0758, 0.2322,-0.3772,-0.1523,-0.2487,-2.7597
09-Sep-2020 11:15:36.999,-0.0484, 0.1357,-0.9263, 0.1217, 0.2131,-0.4652,-0.1511,-0.2489,-2.7636
09-Sep-2020 11:15:37.009,-0.1130, 0.1308,-0.9063, 0.2264, 0.1296,-0.5565,-0.1501,-0.2470,-2.7681
09-Sep-2020 11:15:37.019,-0.1248, 0.1700,-0.9151, 0.2359, 0.0587,-0.6355,-0.1501,-0.2440,-2.7733
09-Sep-2020 11:15:37.029,-0.1564, 0.1951,-0.8833, 0.1084, 0.1089,-0.6994,-0.1509,-0.2408,-2.7794
09-Sep-2020 11:15:37.039,-0.1629, 0.1983,-0.8186,-0.1521, 0.1189,-0.7413,-0.1515,-0.2388,-2.7862
09-Sep-2020 11:15:37.049,-0.1650, 0.1885,-0.7915,-0.4571,-0.0069,-0.7696,-0.1522,-0.2392,-2.7939
09-Sep-2020 11:15:37.059,-0.1633, 0.1793,-0.8682,-0.7065,-0.2400,-0.7802,-0.1544,-0.2424,-2.8023
09-Sep-2020 11:15:37.069,-0.1677, 0.1678,-0.9048,-0.8057,-0.2632,-0.8294,-0.1588,-0.2480,-2.8112
09-Sep-2020 11:15:37.079,-0.1811, 0.1302,-0.9450,-0.6589,-0.2451,-0.8531,-0.1638,-0.2545,-2.8209
09-Sep-2020 11:15:37.089,-0.1265, 0.0589,-1.0319,-0.3861,-0.5926,-0.7136,-0.1689,-0.2594,-2.8305
09-Sep-2020 11:15:37.099,-0.1673, 0.0293,-1.0551,-0.1099,-1.1259,-0.1257,-0.1769,-0.2620,-2.8380
09-Sep-2020 11:15:37.109,-0.2231, 0.1499,-0.9651, 0.1851,-1.0257, 0.4477,-0.1880,-0.2629,-2.8393
09-Sep-2020 11:15:37.118,-0.1855, 0.1299,-0.8287, 0.3075,-0.8241, 0.6742,-0.1970,-0.2619,-2.8346
09-Sep-2020 11:15:37.129,-0.2284, 0.1314,-0.7945, 0.1681,-0.2918, 0.7144,-0.2030,-0.2604,-2.8273
09-Sep-2020 11:15:37.138,-0.3308, 0.2571,-0.6283,-0.0489, 0.2109, 0.6969,-0.2041,-0.2602,-2.8197
09-Sep-2020 11:15:37.148,-0.2511, 0.2898,-0.6592,-0.3550, 0.6569, 0.7065,-0.2002,-0.2621,-2.8127
09-Sep-2020 11:15:37.158,-0.1895, 0.3054,-0.6481,-0.6638, 0.9391, 0.7294,-0.1920,-0.2669,-2.8061
09-Sep-2020 11:15:37.168,-0.1574, 0.3097,-0.7101,-0.8444, 0.9740, 0.7657,-0.1812,-0.2747,-2.7999
09-Sep-2020 11:15:37.178,-0.1285, 0.3107,-0.8453,-0.7984, 0.9500, 0.8584,-0.1698,-0.2841,-2.7935
09-Sep-2020 11:15:37.188,-0.1109, 0.2922,-0.9388,-0.6235, 0.8525, 0.9615,-0.1582,-0.2932,-2.7859
09-Sep-2020 11:15:37.198,-0.0898, 0.2966,-0.9640,-0.4400, 0.6374, 1.0640,-0.1472,-0.3008,-2.7770
09-Sep-2020 11:15:37.208,-0.0307, 0.3174,-0.9300,-0.3711, 0.5999, 1.1362,-0.1376,-0.3067,-2.7666
09-Sep-2020 11:15:37.218,-0.0021, 0.3637,-0.7574,-0.4191, 0.8540, 1.1267,-0.1281,-0.3119,-2.7553
09-Sep-2020 11:15:37.228,-0.0160, 0.4189,-0.6428,-0.4758, 1.2903, 1.0072,-0.1160,-0.3173,-2.7441
09-Sep-2020 11:15:37.238,-0.0419, 0.4756,-0.6637,-0.4237, 1.6146, 0.8437,-0.1001,-0.3230,-2.7341
09-Sep-2020 11:15:37.248, 0.0134, 0.4944,-0.7498,-0.2742, 1.6555, 0.7343,-0.0815,-0.3279,-2.7256
09-Sep-2020 11:15:37.258, 0.0610, 0.4960,-0.8621,-0.0103, 1.3806, 0.6783,-0.0628,-0.3310,-2.7180
09-Sep-2020 11:15:37.268, 0.0577, 0.4749,-0.9927, 0.3792, 0.7555, 0.7078,-0.0469,-0.3314,-2.7107
09-Sep-2020 11:15:37.278, 0.0974, 0.3658,-1.3646, 0.9846,-0.9737, 0.9694,-0.0381,-0.3275,-2.7028
09-Sep-2020 11:15:37.288, 0.1301, 0.2762,-1.3145, 0.9676,-1.7040, 1.1793,-0.0437,-0.3186,-2.6922
09-Sep-2020 11:15:37.297,-0.0698, 0.2672,-0.7213, 0.9795,-1.4308, 1.3342,-0.0561,-0.3095,-2.6794
09-Sep-2020 11:15:37.307,-0.0975, 0.1782,-0.7317, 0.8660,-0.8536, 1.6457,-0.0657,-0.3006,-2.6647
09-Sep-2020 11:15:37.317,-0.0208, 0.1456,-0.6449, 0.5753,-0.1743, 2.0198,-0.0690,-0.2932,-2.6469
09-Sep-2020 11:15:37.327,-0.0350, 0.1864,-0.5990, 0.2500, 0.4498, 2.3019,-0.0646,-0.2888,-2.6255
09-Sep-2020 11:15:37.337,-0.1381, 0.2372,-0.6750,-0.0503, 0.9171, 2.4554,-0.0535,-0.2877,-2.6015
09-Sep-2020 11:15:37.347,-0.2027, 0.2515,-0.7456,-0.2612, 1.1526, 2.5831,-0.0373,-0.2892,-2.5760
09-Sep-2020 11:15:37.357,-0.2072, 0.2289,-0.7990,-0.4555, 1.3511, 2.7652,-0.0181,-0.2925,-2.5491
09-Sep-2020 11:15:37.367,-0.1689, 0.1849,-0.7538,-0.5287, 1.6062, 3.0480, 0.0038,-0.2971,-2.5203
09-Sep-2020 11:15:37.377,-0.1043, 0.1808,-0.8356,-0.4634, 1.7056, 3.3824, 0.0291,-0.3018,-2.4883
09-Sep-2020 11:15:37.387,-0.0305, 0.1989,-0.9245,-0.3619, 1.5752, 3.7368, 0.0565,-0.3049,-2.4528
09-Sep-2020 11:15:37.397, 0.0098, 0.2125,-0.9360,-0.2425, 1.4593, 4.0695, 0.0840,-0.3058,-2.4136
09-Sep-2020 11:15:37.407, 0.0384, 0.2289,-0.9068,-0.1248, 1.5475, 4.3488, 0.1114,-0.3042,-2.3710
09-Sep-2020 11:15:37.417, 0.0691, 0.2441,-0.8700,-0.1148, 1.8398, 4.5147, 0.1403,-0.3000,-2.3259
09-Sep-2020 11:15:37.427, 0.1086, 0.2753,-0.8192,-0.2553, 2.2396, 4.6100, 0.1724,-0.2942,-2.2793
09-Sep-2020 11:15:37.437, 0.1800, 0.3016,-0.7854,-0.4850, 2.5447, 4.6959, 0.2083,-0.2880,-2.2317
09-Sep-2020 11:15:37.447, 0.2437, 0.2860,-0.7948,-0.7257, 2.6026, 4.8411, 0.2471,-0.2821,-2.1830
09-Sep-2020 11:15:37.457, 0.3312, 0.2296,-0.8303,-0.9003, 2.5581, 5.0522, 0.2868,-0.2763,-2.1326
09-Sep-2020 11:15:37.467, 0.4501, 0.1713,-0.8665,-0.9788, 2.3927, 5.2891, 0.3264,-0.2695,-2.0799
09-Sep-2020 11:15:37.477, 0.4804, 0.1753,-0.9540,-0.9312, 1.9806, 5.4475, 0.3644,-0.2607,-2.0252
09-Sep-2020 11:15:37.487, 0.4793, 0.1634,-1.0349,-0.7304, 1.4560, 5.5702, 0.3980,-0.2490,-1.9696
09-Sep-2020 11:15:37.497, 0.5347, 0.1511,-1.0653,-0.4357, 1.0386, 5.6801, 0.4258,-0.2333,-1.9143
09-Sep-2020 11:15:37.507, 0.5821, 0.1477,-1.0264,-0.1241, 0.7552, 5.7240, 0.4483,-0.2133,-1.8599
09-Sep-2020 11:15:37.516, 0.6182, 0.1401,-0.9732, 0.1334, 0.6053, 5.6642, 0.4664,-0.1892,-1.8072
09-Sep-2020 11:15:37.526, 0.6564, 0.1518,-0.9258, 0.2743, 0.6099, 5.5222, 0.4814,-0.1623,-1.7568
09-Sep-2020 11:15:37.536, 0.6703, 0.1661,-0.8607, 0.3142, 0.6729, 5.3141, 0.4945,-0.1341,-1.7090
09-Sep-2020 11:15:37.546, 0.6484, 0.1326,-0.8332, 0.3227, 0.6827, 5.1222, 0.5066,-0.1060,-1.6637
09-Sep-2020 11:15:37.556, 0.6408, 0.0353,-0.8368, 0.3379, 0.7330, 5.0255, 0.5174,-0.0781,-1.6206
09-Sep-2020 11:15:37.566, 0.6613,-0.0510,-0.8063, 0.3594, 0.8876, 5.0359, 0.5274,-0.0501,-1.5787
09-Sep-2020 11:15:37.576, 0.6927,-0.0850,-0.7789, 0.4145, 1.0060, 5.0869, 0.5377,-0.0215,-1.5373
09-Sep-2020 11:15:37.586, 0.6873,-0.0981,-0.8157, 0.4145, 1.0060, 5.0869, 0.5479, 0.0083,-1.4961
09-Sep-2020 11:15:37.596, 0.6540,-0.0951,-0.8756, 0.7056, 0.9337, 4.9136, 0.5573, 0.0393,-1.4560
09-Sep-2020 11:15:37.606, 0.6137,-0.0738,-0.9304, 0.9320, 0.6511, 4.6745, 0.5644, 0.0713,-1.4183
09-Sep-2020 11:15:37.616, 0.6056,-0.0651,-0.9652, 1.2280,-0.2320, 4.4171, 0.5678, 0.1042,-1.3839
09-Sep-2020 11:15:37.626, 0.8022,-0.1049,-1.5902, 1.5415,-2.3961, 4.1746, 0.5603, 0.1381,-1.3530
09-Sep-2020 11:15:37.636, 0.6382,-0.1451,-1.6600, 2.0522,-2.1540, 4.0063, 0.5339, 0.1731,-1.3252
09-Sep-2020 11:15:37.646, 0.4865,-0.1440,-0.9444, 2.1488,-1.5141, 3.8277, 0.5078, 0.2105,-1.3001
09-Sep-2020 11:15:37.656, 0.6576,-0.1760,-0.8376, 1.7943,-1.2337, 3.7133, 0.4870, 0.2473,-1.2760
09-Sep-2020 11:15:37.666, 0.5495,-0.2853,-0.7825, 1.2694,-0.2281, 3.5815, 0.4687, 0.2801,-1.2504
09-Sep-2020 11:15:37.676, 0.3892,-0.3278,-0.6601, 0.5416, 0.4919, 3.3159, 0.4582, 0.3072,-1.2230
09-Sep-2020 11:15:37.686, 0.4127,-0.3572,-0.6484,-0.1191, 0.7907, 3.1226, 0.4538, 0.3267,-1.1942
09-Sep-2020 11:15:37.696, 0.4705,-0.3662,-0.7001,-0.4799, 1.0676, 3.0916, 0.4518, 0.3395,-1.1640
09-Sep-2020 11:15:37.706, 0.5295,-0.3488,-0.7548,-0.5337, 1.4410, 3.1497, 0.4518, 0.3489,-1.1324
09-Sep-2020 11:15:37.716, 0.5453,-0.2887,-0.7847,-0.3282, 1.8239, 3.1403, 0.4549, 0.3580,-1.0999
09-Sep-2020 11:15:37.726, 0.5208,-0.2143,-0.8382, 0.0328, 1.9663, 2.9436, 0.4618, 0.3691,-1.0685
09-Sep-2020 11:15:37.736, 0.5887,-0.1560,-1.0753, 0.3233, 1.1408, 2.4879, 0.4703, 0.3824,-1.0407
09-Sep-2020 11:15:37.746, 0.7164,-0.2062,-1.3806, 0.8705, 0.4716, 2.2320, 0.4736, 0.3969,-1.0183
09-Sep-2020 11:15:37.755, 0.6893,-0.3096,-1.3784, 1.3633,-0.4990, 2.2471, 0.4711, 0.4148,-1.0008
09-Sep-2020 11:15:37.765, 0.6199,-0.3610,-1.2715, 1.7201,-1.4703, 2.2721, 0.4598, 0.4370,-0.9855
09-Sep-2020 11:15:37.775, 0.4633,-0.3515,-1.0947, 1.8216,-2.2730, 2.0928, 0.4390, 0.4621,-0.9712
09-Sep-2020 11:15:37.785, 0.2836,-0.3836,-0.8516, 1.3513,-2.0207, 1.9625, 0.4112, 0.4869,-0.9579
09-Sep-2020 11:15:37.795, 0.1259,-0.4443,-0.5249, 0.6346,-1.3709, 1.9983, 0.3842, 0.5068,-0.9432
09-Sep-2020 11:15:37.805, 0.0953,-0.4360,-0.3653,-0.0033,-0.5499, 2.2100, 0.3615, 0.5201,-0.9244
09-Sep-2020 11:15:37.815, 0.2308,-0.3888,-0.3518,-0.4012, 0.0970, 2.4557, 0.3439, 0.5278,-0.9005
09-Sep-2020 11:15:37.825, 0.3670,-0.3219,-0.3941,-0.6627, 0.6197, 2.6837, 0.3305, 0.5323,-0.8722
09-Sep-2020 11:15:37.835, 0.4359,-0.2848,-0.4043,-0.8735, 1.1333, 2.8471, 0.3204, 0.5346,-0.8403
09-Sep-2020 11:15:37.845, 0.4783,-0.2779,-0.4163,-1.0061, 1.5519, 2.8592, 0.3141, 0.5353,-0.8059
09-Sep-2020 11:15:37.855, 0.4994,-0.2914,-0.4766,-1.1858, 1.7269, 2.6847, 0.3115, 0.5345,-0.7710
09-Sep-2020 11:15:37.865, 0.4324,-0.2813,-0.5410,-1.5733, 1.6678, 2.3448, 0.3114, 0.5313,-0.7372
09-Sep-2020 11:15:37.875, 0.3007,-0.2364,-0.5819,-2.1077, 1.5045, 1.8288, 0.3122, 0.5235,-0.7060
09-Sep-2020 11:15:37.885, 0.1615,-0.1627,-0.5994,-2.6007, 1.3166, 1.1357, 0.3137, 0.5092,-0.6787
09-Sep-2020 11:15:37.895, 0.0795,-0.0648,-0.5765,-3.0700, 1.2892, 0.4049, 0.3166, 0.4882,-0.6573
09-Sep-2020 11:15:37.905, 0.1310, 0.0563,-0.4738,-3.5226, 1.3769, 0.0033, 0.3225, 0.4605,-0.6419
09-Sep-2020 11:15:37.915, 0.3322, 0.1245,-0.5097,-3.9229, 1.3040, 0.0421, 0.3306, 0.4274,-0.6291
09-Sep-2020 11:15:37.925, 0.5215, 0.1386,-0.6727,-3.8817, 1.2260, 0.4425, 0.3377, 0.3912,-0.6145
09-Sep-2020 11:15:37.934, 0.7097, 0.0900,-0.8075,-3.6359, 1.4852, 0.9121, 0.3435, 0.3564,-0.5961
09-Sep-2020 11:15:37.944, 0.6704, 0.2226,-0.5501,-3.7444, 1.8575, 1.2083, 0.3510, 0.3252,-0.5740
09-Sep-2020 11:15:37.954, 0.5928, 0.3987,-0.8397,-2.9181, 0.5031, 1.6507, 0.3597, 0.2954,-0.5487
09-Sep-2020 11:15:37.964, 0.6501, 0.2466,-1.9629,-2.2747, 1.0809, 1.8285, 0.3594, 0.2732,-0.5220
09-Sep-2020 11:15:37.974, 0.4392, 0.0880,-1.1211,-0.9680, 1.5279, 1.7369, 0.3630, 0.2591,-0.4964
09-Sep-2020 11:15:37.984, 0.2979, 0.0857,-1.3757,-0.0091, 2.1678, 1.7332, 0.3733, 0.2562,-0.4760
09-Sep-2020 11:15:37.994, 0.4583, 0.2711,-1.0585, 0.2921, 2.6303, 1.9884, 0.3903, 0.2622,-0.4590
09-Sep-2020 11:15:38.004, 0.5099, 0.2433,-0.9359, 0.3767, 2.6649, 2.1260, 0.4115, 0.2726,-0.4412
09-Sep-2020 11:15:38.014, 0.3364, 0.1893,-0.9197, 0.3758, 2.3574, 1.9657, 0.4328, 0.2846,-0.4229
09-Sep-2020 11:15:38.024, 0.2055, 0.1959,-0.9277, 0.3702, 1.8539, 1.5632, 0.4513, 0.2964,-0.4062
09-Sep-2020 11:15:38.034, 0.1250, 0.1778,-0.9817, 0.3474, 1.2609, 1.0583, 0.4659, 0.3066,-0.3933
09-Sep-2020 11:15:38.044, 0.1176, 0.1225,-1.0009, 0.3041, 0.8085, 0.6196, 0.4760, 0.3145,-0.3850
09-Sep-2020 11:15:38.054, 0.1662, 0.0428,-0.9917, 0.1903, 0.5570, 0.3070, 0.4827, 0.3201,-0.3806
09-Sep-2020 11:15:38.064, 0.1796,-0.0512,-0.9409, 0.0198, 0.4960, 0.0919, 0.4877, 0.3232,-0.3785
09-Sep-2020 11:15:38.074, 0.1582,-0.1338,-0.8556,-0.1742, 0.5736,-0.0699, 0.4925, 0.3239,-0.3777
09-Sep-2020 11:15:38.083, 0.1291,-0.1973,-0.7691,-0.3857, 0.6305,-0.1882, 0.4981, 0.3220,-0.3774
09-Sep-2020 11:15:38.094, 0.1299,-0.2549,-0.7146,-0.5973, 0.5927,-0.2464, 0.5042, 0.3178,-0.3771
09-Sep-2020 11:15:38.104, 0.1549,-0.3050,-0.7065,-0.8042, 0.5147,-0.2664, 0.5098, 0.3115,-0.3763
09-Sep-2020 11:15:38.114, 0.1730,-0.3592,-0.6877,-1.0556, 0.4724,-0.2536, 0.5144, 0.3033,-0.3745
09-Sep-2020 11:15:38.124, 0.1781,-0.4075,-0.6791,-1.3179, 0.4673,-0.2372, 0.5181, 0.2929,-0.3713
09-Sep-2020 11:15:38.134, 0.1636,-0.4113,-0.6950,-1.5681, 0.5348,-0.2766, 0.5215, 0.2804,-0.3667
09-Sep-2020 11:15:38.143, 0.1269,-0.3796,-0.7395,-1.7533, 0.5290,-0.3779, 0.5253, 0.2656,-0.3610
09-Sep-2020 11:15:38.153, 0.1194,-0.3226,-0.8283,-1.8270, 0.4511,-0.5214, 0.5290, 0.2488,-0.3553
09-Sep-2020 11:15:38.163, 0.1159,-0.2587,-0.8850,-1.8339, 0.3224,-0.6530, 0.5323, 0.2305,-0.3504
09-Sep-2020 11:15:38.173, 0.1299,-0.2191,-0.9148,-1.8067, 0.1903,-0.7485, 0.5347, 0.2116,-0.3466
09-Sep-2020 11:15:38.184, 0.1753,-0.2106,-0.9163,-1.7549, 0.1095,-0.7495, 0.5360, 0.1924,-0.3437
09-Sep-2020 11:15:38.193, 0.2543,-0.2310,-0.9272,-1.6304, 0.0393,-0.6481, 0.5366, 0.1738,-0.3411
09-Sep-2020 11:15:38.203, 0.3443,-0.2552,-0.9990,-1.4041,-0.0484,-0.4609, 0.5365, 0.1567,-0.3383
09-Sep-2020 11:15:38.213, 0.3979,-0.2775,-1.0677,-1.1429,-0.0291,-0.2438, 0.5356, 0.1424,-0.3350
09-Sep-2020 11:15:38.223, 0.3938,-0.2921,-1.0852,-0.9080, 0.1507,-0.0735, 0.5349, 0.1314,-0.3312
09-Sep-2020 11:15:38.238, 0.3535,-0.2917,-1.0524,-0.7790, 0.5104,-0.0281, 0.5360, 0.1232,-0.3272
09-Sep-2020 11:15:38.243, 0.2860,-0.2751,-0.9798,-0.7662, 0.9123,-0.1287, 0.5406, 0.1164,-0.3234
09-Sep-2020 11:15:38.253, 0.2188,-0.2548,-0.9185,-0.8501, 1.1826,-0.3189, 0.5493, 0.1092,-0.3205
09-Sep-2020 11:15:38.263, 0.2010,-0.2364,-0.8874,-0.9480, 1.2320,-0.4876, 0.5607, 0.1004,-0.3187
09-Sep-2020 11:15:38.273, 0.2694,-0.2487,-0.8878,-1.0381, 1.1744,-0.5500, 0.5728, 0.0899,-0.3176
09-Sep-2020 11:15:38.283, 0.3627,-0.2790,-0.8808,-1.1579, 1.1553,-0.5344, 0.5844, 0.0783,-0.3164
09-Sep-2020 11:15:38.293, 0.4263,-0.3052,-0.8725,-1.2851, 1.1274,-0.4777, 0.5957, 0.0659,-0.3144
09-Sep-2020 11:15:38.303, 0.4743,-0.2952,-0.9134,-1.3912, 1.0936,-0.4374, 0.6067, 0.0527,-0.3110
09-Sep-2020 11:15:38.313, 0.4790,-0.2200,-0.9143,-1.4883, 1.0570,-0.4701, 0.6174, 0.0389,-0.3066
09-Sep-2020 11:15:38.323, 0.4571,-0.1432,-0.9004,-1.5641, 0.9745,-0.5472, 0.6277, 0.0242,-0.3018
09-Sep-2020 11:15:38.332, 0.4366,-0.0891,-0.9071,-1.6198, 0.9050,-0.6782, 0.6373, 0.0085,-0.2970
09-Sep-2020 11:15:38.342, 0.4303,-0.0426,-0.9126,-1.6394, 0.8702,-0.8122, 0.6463,-0.0084,-0.2927
09-Sep-2020 11:15:38.352, 0.4705,-0.0341,-0.9442,-1.6001, 0.8681,-0.8749, 0.6551,-0.0261,-0.2892
09-Sep-2020 11:15:38.362, 0.5342,-0.0389,-1.0055,-1.4993, 0.8640,-0.8641, 0.6638,-0.0439,-0.2863
09-Sep-2020 11:15:38.372, 0.5998,-0.0235,-1.0666,-1.3614, 0.8404,-0.8252, 0.6725,-0.0608,-0.2837
09-Sep-2020 11:15:38.382, 0.6339, 0.0093,-1.1084,-1.2117, 0.7865,-0.8099, 0.6810,-0.0765,-0.2816
09-Sep-2020 11:15:38.392, 0.6362, 0.0284,-1.1209,-1.0965, 0.7351,-0.8234, 0.6889,-0.0909,-0.2802
09-Sep-2020 11:15:38.402, 0.6239, 0.0323,-1.0944,-1.0181, 0.6992,-0.8647, 0.6963,-0.1045,-0.2795
09-Sep-2020 11:15:38.412, 0.6093, 0.0372,-1.0487,-0.9503, 0.7198,-0.9213, 0.7033,-0.1177,-0.2795
09-Sep-2020 11:15:38.422, 0.6158, 0.0347,-0.9997,-0.8892, 0.7654,-0.9738, 0.7103,-0.1308,-0.2804
09-Sep-2020 11:15:38.432, 0.6483, 0.0340,-0.9765,-0.8243, 0.7769,-0.9975, 0.7177,-0.1437,-0.2819
09-Sep-2020 11:15:38.442, 0.7156, 0.0448,-0.9993,-0.7477, 0.6920,-0.9551, 0.7250,-0.1563,-0.2839
09-Sep-2020 11:15:38.452, 0.8002, 0.0857,-1.0689,-0.6065, 0.4800,-0.8927, 0.7315,-0.1681,-0.2860
09-Sep-2020 11:15:38.462, 0.8579, 0.1544,-1.1359,-0.3987, 0.2864,-0.8437, 0.7358,-0.1784,-0.2887
09-Sep-2020 11:15:38.472, 0.8928, 0.1966,-1.1512,-0.1517, 0.1906,-0.7863, 0.7380,-0.1869,-0.2923
09-Sep-2020 11:15:38.482, 0.9204, 0.1817,-1.1450, 0.0923, 0.1616,-0.6839, 0.7390,-0.1932,-0.2971
09-Sep-2020 11:15:38.492, 0.9418, 0.1532,-1.1182, 0.3126, 0.1656,-0.5717, 0.7395,-0.1971,-0.3028
09-Sep-2020 11:15:38.502, 0.9398, 0.1445,-1.0736, 0.4926, 0.1519,-0.5055, 0.7399,-0.1986,-0.3092
09-Sep-2020 11:15:38.512, 0.9130, 0.1497,-1.0261, 0.5964, 0.1464,-0.5059, 0.7400,-0.1983,-0.3163
09-Sep-2020 11:15:38.522, 0.9100, 0.1509,-0.9766, 0.6360, 0.1224,-0.5117, 0.7399,-0.1973,-0.3241
09-Sep-2020 11:15:38.532, 0.9514, 0.1412,-0.9815, 0.6384,-0.0112,-0.4694, 0.7394,-0.1960,-0.3322
09-Sep-2020 11:15:38.542, 0.9841, 0.1287,-1.0202, 0.6452,-0.1953,-0.3766, 0.7377,-0.1943,-0.3401
09-Sep-2020 11:15:38.552, 0.9820, 0.1198,-1.0523, 0.6882,-0.3588,-0.2830, 0.7344,-0.1920,-0.3473
09-Sep-2020 11:15:38.562, 0.9728, 0.1147,-1.0499, 0.7552,-0.4252,-0.2149, 0.7296,-0.1887,-0.3541
09-Sep-2020 11:15:38.571, 0.9591, 0.1261,-1.0236, 0.8620,-0.4405,-0.1524, 0.7241,-0.1844,-0.3608
09-Sep-2020 11:15:38.582, 0.9534, 0.1563,-0.9972, 1.0067,-0.3701,-0.0642, 0.7185,-0.1789,-0.3677
09-Sep-2020 11:15:38.591, 0.9552, 0.1709,-0.9296, 1.1592,-0.1683, 0.0547, 0.7137,-0.1716,-0.3748
09-Sep-2020 11:15:38.601, 0.9310, 0.1461,-0.8461, 1.3282, 0.0872, 0.1773, 0.7109,-0.1625,-0.3820
09-Sep-2020 11:15:38.611, 0.9073, 0.1266,-0.8068, 1.4865, 0.2807, 0.2869, 0.7105,-0.1512,-0.3893
09-Sep-2020 11:15:38.621, 0.8547, 0.1218,-0.7829, 1.5935, 0.4345, 0.3423, 0.7122,-0.1381,-0.3969
09-Sep-2020 11:15:38.632, 0.8531, 0.1662,-0.7495, 1.6362, 0.5240, 0.3184, 0.7154,-0.1239,-0.4047
09-Sep-2020 11:15:38.641, 0.8745, 0.2022,-0.7391, 1.5802, 0.5277, 0.2811, 0.7196,-0.1095,-0.4130
09-Sep-2020 11:15:38.651, 0.8774, 0.1925,-0.7430, 1.4661, 0.4504, 0.2724, 0.7239,-0.0958,-0.4213
09-Sep-2020 11:15:38.661, 0.9004, 0.1667,-0.7896, 1.3811, 0.3490, 0.2734, 0.7277,-0.0830,-0.4289
09-Sep-2020 11:15:38.671, 0.9086, 0.1261,-0.8456, 1.3737, 0.2020, 0.3105, 0.7306,-0.0708,-0.4361
09-Sep-2020 11:15:38.681, 0.9643, 0.0948,-0.9111, 1.3800, 0.2089, 0.4019, 0.7323,-0.0585,-0.4429
09-Sep-2020 11:15:38.691, 0.9073, 0.0604,-0.9212, 1.3686, 0.2517, 0.5134, 0.7340,-0.0455,-0.4490
09-Sep-2020 11:15:38.700, 0.7302, 0.0027,-0.9316, 1.3642, 0.2834, 0.4266, 0.7364,-0.0320,-0.4545
09-Sep-2020 11:15:38.710, 0.4893, 0.0428,-0.9402, 1.4566, 0.2213, 0.1339, 0.7390,-0.0191,-0.4606
09-Sep-2020 11:15:38.720, 0.5349, 0.1524,-0.9014, 1.6183, 0.1561,-0.0261, 0.7411,-0.0073,-0.4693
09-Sep-2020 11:15:38.730, 0.5346, 0.1688,-0.8739, 1.7031, 0.2943,-0.0940, 0.7428, 0.0044,-0.4803
09-Sep-2020 11:15:38.740, 0.5145, 0.2032,-0.8145, 1.7201, 0.4797,-0.1758, 0.7459, 0.0163,-0.4924
09-Sep-2020 11:15:38.751, 0.4818, 0.2239,-0.7863, 1.7514, 0.4029,-0.2869, 0.7507, 0.0277,-0.5053
09-Sep-2020 11:15:38.760, 0.4542, 0.2222,-0.7873, 1.7868, 0.2262,-0.4098, 0.7551, 0.0386,-0.5193
09-Sep-2020 11:15:38.770, 0.4512, 0.1855,-0.7034, 1.7714, 0.1949,-0.5208, 0.7581, 0.0488,-0.5344
09-Sep-2020 11:15:38.780, 0.4523, 0.1042,-0.5451, 1.6865, 0.3808,-0.5855, 0.7611, 0.0580,-0.5502
09-Sep-2020 11:15:38.790, 0.4482, 0.0143,-0.3687, 1.5298, 0.7821,-0.6969, 0.7660, 0.0662,-0.5660
09-Sep-2020 11:15:38.800, 0.4518,-0.0690,-0.1995, 1.2172, 1.2727,-0.8071, 0.7749, 0.0723,-0.5816
09-Sep-2020 11:15:38.810, 0.5125,-0.1670,-0.0862, 0.6663, 1.7679,-0.9033, 0.7885, 0.0752,-0.5957
09-Sep-2020 11:15:38.820, 0.5631,-0.2255, 0.1693,-0.1801, 2.1359,-0.9736, 0.8069, 0.0733,-0.6066
09-Sep-2020 11:15:38.830, 0.6363,-0.2875, 0.1199,-0.6930, 1.6482,-1.0146, 0.8280, 0.0653,-0.6120
09-Sep-2020 11:15:38.840, 0.7302,-0.2361,-0.2930,-0.9789, 1.0944,-1.0325, 0.8445, 0.0533,-0.6137
09-Sep-2020 11:15:38.850, 0.8245,-0.1209,-0.4805,-1.1382, 0.8620,-0.9251, 0.8555, 0.0394,-0.6132
09-Sep-2020 11:15:38.860, 0.8181,-0.1033,-0.5907,-1.1383, 0.8680,-0.8302, 0.8642, 0.0251,-0.6107
09-Sep-2020 11:15:38.870, 0.7539,-0.0923,-0.6417,-0.9905, 0.9897,-0.8404, 0.8728, 0.0116,-0.6075
09-Sep-2020 11:15:38.880, 0.7104,-0.0379,-0.6757,-0.7584, 1.0408,-0.8413, 0.8826,-0.0010,-0.6052
09-Sep-2020 11:15:38.890, 0.7367, 0.0404,-0.7297,-0.5050, 0.9836,-0.7364, 0.8929,-0.0121,-0.6046
09-Sep-2020 11:15:38.900, 0.7712, 0.0506,-0.7994,-0.2687, 0.9248,-0.6384, 0.9026,-0.0209,-0.6052
09-Sep-2020 11:15:38.910, 0.7319, 0.0071,-0.8288,-0.0422, 1.0522,-0.6541, 0.9119,-0.0276,-0.6071
09-Sep-2020 11:15:38.920, 0.7103, 0.0083,-0.8066, 0.2309, 1.2679,-0.7059, 0.9223,-0.0329,-0.6108
09-Sep-2020 11:15:38.930, 0.7332,-0.0173,-0.7491, 0.3800, 1.5982,-0.7426, 0.9348,-0.0371,-0.6167
09-Sep-2020 11:15:38.940, 0.7410,-0.0591,-0.6180, 0.3778, 1.7473,-0.7729, 0.9503,-0.0408,-0.6240
09-Sep-2020 11:15:38.950, 0.7610,-0.0820,-0.5557, 0.2285, 1.6197,-0.8150, 0.9672,-0.0450,-0.6314
09-Sep-2020 11:15:38.960, 0.7739,-0.0776,-0.5189, 0.0252, 1.2647,-0.8847, 0.9828,-0.0504,-0.6379
09-Sep-2020 11:15:38.970, 0.7544,-0.0464,-0.5149,-0.1703, 0.8383,-0.9952, 0.9950,-0.0575,-0.6429
09-Sep-2020 11:15:38.980, 0.7146,-0.0015,-0.5187,-0.3300, 0.5288,-1.0899, 1.0032,-0.0666,-0.6469
09-Sep-2020 11:15:38.990, 0.6416, 0.0220,-0.4685,-0.4747, 0.4345,-1.2225, 1.0083,-0.0775,-0.6499
09-Sep-2020 11:15:39.000, 0.5795, 0.0376,-0.4220,-0.5687, 0.4363,-1.3408, 1.0125,-0.0902,-0.6524
09-Sep-2020 11:15:39.009, 0.6144, 0.0423,-0.4413,-0.5820, 0.3746,-1.3506, 1.0166,-0.1044,-0.6547
09-Sep-2020 11:15:39.019, 0.7055, 0.0568,-0.5270,-0.5232, 0.1979,-1.2376, 1.0200,-0.1187,-0.6568
09-Sep-2020 11:15:39.029, 0.7867, 0.0829,-0.5651,-0.4557, 0.0218,-1.0627, 1.0217,-0.1318,-0.6588
09-Sep-2020 11:15:39.039, 0.7801, 0.1041,-0.5565,-0.3591,-0.0728,-0.8696, 1.0217,-0.1431,-0.6604
09-Sep-2020 11:15:39.050, 0.7607, 0.1170,-0.5545,-0.2618,-0.0524,-0.7444, 1.0208,-0.1523,-0.6619
09-Sep-2020 11:15:39.059, 0.7219, 0.1502,-0.4922,-0.2567, 0.0391,-0.6963, 1.0201,-0.1600,-0.6636
09-Sep-2020 11:15:39.069, 0.6949, 0.1631,-0.4033,-0.3148, 0.0323,-0.6789, 1.0202,-0.1672,-0.6650
09-Sep-2020 11:15:39.079, 0.6898, 0.1512,-0.3815,-0.3997,-0.0835,-0.7045, 1.0203,-0.1745,-0.6659
09-Sep-2020 11:15:39.089, 0.6784, 0.1725,-0.3890,-0.5355,-0.2504,-0.7952, 1.0194,-0.1826,-0.6662
09-Sep-2020 11:15:39.099, 0.6720, 0.2003,-0.4224,-0.6573,-0.4687,-0.9024, 1.0169,-0.1921,-0.6658
09-Sep-2020 11:15:39.109, 0.7106, 0.2198,-0.4691,-0.7664,-0.6513,-1.0239, 1.0124,-0.2030,-0.6650
09-Sep-2020 11:15:39.119, 0.7252, 0.2385,-0.4588,-0.8801,-0.7640,-1.1706, 1.0061,-0.2157,-0.6639
09-Sep-2020 11:15:39.129, 0.7590, 0.2462,-0.4916,-0.9380,-0.9047,-1.2147, 0.9987,-0.2301,-0.6628
09-Sep-2020 11:15:39.139, 0.8702, 0.2739,-0.5382,-0.9702,-0.9256,-1.1697, 0.9901,-0.2452,-0.6615
09-Sep-2020 11:15:39.149, 0.8950, 0.3027,-0.5410,-0.9837,-0.6958,-1.1202, 0.9815,-0.2601,-0.6598
09-Sep-2020 11:15:39.159, 0.7484, 0.3270,-0.4993,-0.9923,-0.2111,-1.2125, 0.9752,-0.2748,-0.6579
09-Sep-2020 11:15:39.169, 0.5980, 0.3316,-0.4952,-0.9707, 0.2652,-1.4142, 0.9735,-0.2903,-0.6565
09-Sep-2020 11:15:39.180, 0.5169, 0.3476,-0.4606,-0.9407, 0.5182,-1.8157, 0.9760,-0.3074,-0.6564
09-Sep-2020 11:15:39.189, 0.3989, 0.3769,-0.5819,-0.7697, 0.2832,-2.1519, 0.9800,-0.3275,-0.6590
09-Sep-2020 11:15:39.199, 0.6354, 0.3960,-0.7804,-0.5213, 0.0637,-2.0294, 0.9808,-0.3491,-0.6647
09-Sep-2020 11:15:39.209, 0.8881, 0.4128,-0.7471,-0.3485, 0.4452,-1.6817, 0.9794,-0.3686,-0.6720
09-Sep-2020 11:15:39.219, 0.8775, 0.4329,-0.6513,-0.1894, 1.0792,-1.4363, 0.9815,-0.3845,-0.6789
09-Sep-2020 11:15:39.228, 0.7696, 0.3930,-0.6011,-0.0760, 1.6790,-1.3964, 0.9896,-0.3975,-0.6858
09-Sep-2020 11:15:39.238, 0.7367, 0.3612,-0.5708, 0.0110, 1.9072,-1.3398, 1.0031,-0.4095,-0.6933
09-Sep-2020 11:15:39.249, 0.8407, 0.3571,-0.6390, 0.0202, 1.7526,-1.1340, 1.0187,-0.4206,-0.7010
09-Sep-2020 11:15:39.258, 0.9736, 0.3445,-0.6556,-0.0964, 1.3381,-0.7858, 1.0333,-0.4300,-0.7075
09-Sep-2020 11:15:39.268, 1.0495, 0.3361,-0.5740,-0.2078, 1.0131,-0.5175, 1.0452,-0.4372,-0.7110
09-Sep-2020 11:15:39.278, 0.9552, 0.3392,-0.5319,-0.2609, 0.6947,-0.4621, 1.0548,-0.4427,-0.7120
09-Sep-2020 11:15:39.288, 0.8251, 0.3886,-0.5052,-0.3803, 0.3702,-0.5600, 1.0618,-0.4480,-0.7120
09-Sep-2020 11:15:39.298, 0.8076, 0.4500,-0.3929,-0.5091,-0.0401,-0.6534, 1.0657,-0.4547,-0.7113
09-Sep-2020 11:15:39.308, 0.8015, 0.4662,-0.3031,-0.6320,-0.3118,-0.7228, 1.0659,-0.4627,-0.7098
09-Sep-2020 11:15:39.318, 0.7461, 0.4669,-0.2084,-0.6766,-0.1261,-0.8111, 1.0641,-0.4720,-0.7076
09-Sep-2020 11:15:39.328, 0.6863, 0.5092,-0.2538,-0.6517, 0.1972,-0.9587, 1.0640,-0.4823,-0.7055
09-Sep-2020 11:15:39.338, 0.6075, 0.5584,-0.2738,-0.5786, 0.4679,-1.1541, 1.0664,-0.4937,-0.7043
09-Sep-2020 11:15:39.348, 0.6008, 0.5795,-0.3195,-0.5303, 0.5970,-1.2980, 1.0707,-0.5064,-0.7048
09-Sep-2020 11:15:39.358, 0.6082, 0.5925,-0.3745,-0.5873, 0.7507,-1.4153, 1.0759,-0.5202,-0.7065
09-Sep-2020 11:15:39.368, 0.5794, 0.6186,-0.4284,-0.6670, 0.9441,-1.4913, 1.0825,-0.5353,-0.7082
09-Sep-2020 11:15:39.378, 0.5639, 0.6403,-0.5121,-0.6494, 1.2104,-1.5656, 1.0913,-0.5515,-0.7095
09-Sep-2020 11:15:39.388, 0.5288, 0.6816,-0.5668,-0.4978, 1.5099,-1.6898, 1.1025,-0.5682,-0.7112
09-Sep-2020 11:15:39.397, 0.5192, 0.7213,-0.5731,-0.2916, 1.8510,-1.8016, 1.1155,-0.5854,-0.7149
09-Sep-2020 11:15:39.407, 0.5160, 0.7360,-0.5132,-0.1113, 2.1561,-1.9513, 1.1304,-0.6027,-0.7211
09-Sep-2020 11:15:39.417, 0.4963, 0.7491,-0.4688,-0.0162, 2.2509,-2.1391, 1.1468,-0.6208,-0.7298
09-Sep-2020 11:15:39.427, 0.5578, 0.7457,-0.3891, 0.0425, 1.9915,-2.2292, 1.1628,-0.6402,-0.7402
09-Sep-2020 11:15:39.438, 0.6866, 0.7277,-0.4279, 0.0425, 1.9915,-2.2292, 1.1756,-0.6604,-0.7515
09-Sep-2020 11:15:39.447, 0.5951, 0.7267,-0.4284,-0.1905, 0.9808,-2.7614, 1.1833,-0.6823,-0.7629
09-Sep-2020 11:15:39.457, 0.5327, 0.7164,-0.3522,-0.5039, 0.5497,-2.9833, 1.1861,-0.7084,-0.7739
09-Sep-2020 11:15:39.467, 0.6773, 0.6573,-0.3164,-0.7242, 0.1934,-2.9677, 1.1858,-0.7375,-0.7826
09-Sep-2020 11:15:39.477, 0.7693, 0.5911,-0.3621,-0.7299, 0.0077,-2.7964, 1.1836,-0.7674,-0.7888
09-Sep-2020 11:15:39.487, 0.7784, 0.5935,-0.3830,-0.5816, 0.0539,-2.6088, 1.1799,-0.7958,-0.7944
09-Sep-2020 11:15:39.497, 0.7652, 0.6528,-0.3595,-0.3988, 0.3883,-2.3769, 1.1758,-0.8218,-0.8010
09-Sep-2020 11:15:39.507, 0.8024, 0.7421,-0.3456,-0.2028, 0.8514,-2.1589, 1.1737,-0.8451,-0.8092
09-Sep-2020 11:15:39.517, 0.7853, 0.7984,-0.3629,-0.0226, 1.2756,-1.9643, 1.1748,-0.8657,-0.8191
09-Sep-2020 11:15:39.527, 0.7949, 0.7817,-0.3390, 0.0346, 1.3921,-1.8447, 1.1785,-0.8838,-0.8304
09-Sep-2020 11:15:39.537, 0.7611, 0.7576,-0.2528,-0.1089, 1.2739,-1.8284, 1.1833,-0.9007,-0.8418
09-Sep-2020 11:15:39.547, 0.7710, 0.7162,-0.1678,-0.3376, 0.9801,-1.8427, 1.1884,-0.9179,-0.8513
09-Sep-2020 11:15:39.557, 0.7605, 0.6764,-0.1487,-0.5382, 0.6103,-1.8672, 1.1931,-0.9361,-0.8575
09-Sep-2020 11:15:39.566, 0.7205, 0.6239,-0.1913,-0.6435, 0.3133,-1.8749, 1.1966,-0.9552,-0.8608
09-Sep-2020 11:15:39.576, 0.7334, 0.5748,-0.1927,-0.6681, 0.0164,-1.8095, 1.1984,-0.9748,-0.8623
09-Sep-2020 11:15:39.587, 0.7660, 0.5933,-0.1677,-0.6943,-0.2087,-1.7160, 1.1980,-0.9939,-0.8629
09-Sep-2020 11:15:39.597, 0.7325, 0.6309,-0.1432,-0.7742,-0.2063,-1.6136, 1.1965,-1.0123,-0.8625
09-Sep-2020 11:15:39.607, 0.6691, 0.6393,-0.1265,-0.9078,-0.0341,-1.4492, 1.1967,-1.0299,-0.8600
09-Sep-2020 11:15:39.617, 0.6104, 0.6875,-0.1558,-1.0203, 0.2375,-1.2712, 1.2018,-1.0466,-0.8537
09-Sep-2020 11:15:39.626, 0.5096, 0.7980,-0.2327,-1.0490, 0.4175,-1.1673, 1.2127,-1.0619,-0.8438
09-Sep-2020 11:15:39.636, 0.4311, 0.9604,-0.2952,-1.0173, 0.4722,-1.2269, 1.2273,-1.0765,-0.8318
09-Sep-2020 11:15:39.646, 0.3324, 1.0175,-0.3747,-0.8431, 0.3024,-1.3542, 1.2419,-1.0912,-0.8204
09-Sep-2020 11:15:39.656, 0.2735, 0.8290,-0.3886,-0.8325, 0.1599,-1.4280, 1.2524,-1.1066,-0.8120
09-Sep-2020 11:15:39.666, 0.3579, 0.7534,-0.2448,-0.9308, 0.1055,-1.4099, 1.2612,-1.1226,-0.8040
09-Sep-2020 11:15:39.676, 0.4477, 0.6261,-0.1634,-1.0419, 0.1137,-1.2435, 1.2722,-1.1386,-0.7930
09-Sep-2020 11:15:39.686, 0.5604, 0.5407,-0.1597,-1.1007, 0.0966,-0.9097, 1.2874,-1.1532,-0.7776
09-Sep-2020 11:15:39.696, 0.6309, 0.6373,-0.1741,-1.1478, 0.0243,-0.5285, 1.3067,-1.1648,-0.7574
09-Sep-2020 11:15:39.706, 0.5899, 0.7829,-0.1214,-1.2610, 0.0152,-0.2156, 1.3300,-1.1727,-0.7323
09-Sep-2020 11:15:39.716, 0.5134, 0.8364,-0.1054,-1.3128, 0.2117,-0.1464, 1.3580,-1.1777,-0.7023
09-Sep-2020 11:15:39.726, 0.3403, 0.9326,-0.0585,-1.6030, 0.1805,-0.2705, 1.3905,-1.1817,-0.6694
09-Sep-2020 11:15:39.736, 0.0541, 0.8367, 0.4418,-2.6103, 0.6829,-0.7162, 1.4326,-1.1873,-0.6267
09-Sep-2020 11:15:39.746,-0.0696, 0.6936, 0.5412,-2.5514, 0.9170,-1.1216, 1.5000,-1.1968,-0.5609
09-Sep-2020 11:15:39.756,-0.1135, 0.8326,-0.0783,-1.4334, 1.3086,-1.4924, 1.5722,-1.2088,-0.4936
09-Sep-2020 11:15:39.766,-0.1652, 1.0256,-0.4354,-0.2490, 0.0398,-1.5380, 1.6236,-1.2230,-0.4515
09-Sep-2020 11:15:39.776, 0.0549, 1.0746,-1.0648, 0.3127,-0.2621,-1.4251, 1.6357,-1.2380,-0.4403
09-Sep-2020 11:15:39.786, 0.1664, 1.2557,-0.2893,-0.0273, 0.0043,-1.2814, 1.6283,-1.2522,-0.4456
09-Sep-2020 11:15:39.795, 0.3328, 1.3123, 0.2253,-0.3458, 0.1613,-1.0181, 1.6310,-1.2648,-0.4426
09-Sep-2020 11:15:39.805, 0.4730, 1.2846, 0.1022,-0.2663, 0.2747,-0.7057, 1.6448,-1.2746,-0.4298
09-Sep-2020 11:15:39.815, 0.4511, 1.3668,-0.1154, 0.1542, 0.2531,-0.3973, 1.6572,-1.2813,-0.4197
09-Sep-2020 11:15:39.825, 0.3714, 1.3377,-0.1569, 0.5844,-0.0575,-0.1946, 1.6553,-1.2854,-0.4240
09-Sep-2020 11:15:39.835, 0.2652, 1.1645, 0.1225, 0.6231, 0.4686,-0.0561, 1.6375,-1.2877,-0.4437
09-Sep-2020 11:15:39.845, 0.1251, 0.9146, 0.5215, 0.3660,-0.1862, 0.0746, 1.6207,-1.2885,-0.4652
09-Sep-2020 11:15:39.855, 0.2260, 0.9186, 0.2583, 0.3071,-0.5179, 0.0355, 1.6058,-1.2880,-0.4789
09-Sep-2020 11:15:39.865, 0.2474, 0.9967,-0.1560, 0.1905,-1.0169,-0.1519, 1.5898,-1.2877,-0.4899
09-Sep-2020 11:15:39.877, 0.3014, 1.0149,-0.3380,-0.1509,-1.2646,-0.3312, 1.5739,-1.2892,-0.4961
09-Sep-2020 11:15:39.885, 0.2635, 1.0440,-0.1332,-0.4020,-0.9014,-0.2512, 1.5666,-1.2922,-0.4910
09-Sep-2020 11:15:39.895, 0.1866, 0.9831,-0.0647,-0.3552,-0.4417,-0.1709, 1.5709,-1.2947,-0.4773
09-Sep-2020 11:15:39.905, 0.1254, 0.8308,-0.0625,-0.1562,-0.0441,-0.2432, 1.5786,-1.2964,-0.4647
09-Sep-2020 11:15:39.915, 0.1192, 0.6976,-0.0211, 0.0375, 0.1184,-0.3721, 1.5835,-1.2988,-0.4590
09-Sep-2020 11:15:39.925, 0.1338, 0.6192,-0.0274, 0.1449, 0.1053,-0.5097, 1.5835,-1.3024,-0.4601
09-Sep-2020 11:15:39.938, 0.1595, 0.5973,-0.0472, 0.1382,-0.0257,-0.5940, 1.5795,-1.3074,-0.4652
09-Sep-2020 11:15:39.945, 0.1943, 0.6117,-0.0600, 0.0261,-0.0284,-0.5894, 1.5744,-1.3132,-0.4703
09-Sep-2020 11:15:39.955, 0.1806, 0.6274,-0.0366, 0.0261,-0.0284,-0.5894, 1.5733,-1.3190,-0.4712
09-Sep-2020 11:15:39.965, 0.1568, 0.6304,-0.0367,-0.2465,-0.1391,-0.4567, 1.5785,-1.3241,-0.4660
09-Sep-2020 11:15:39.975, 0.1258, 0.6427,-0.0725,-0.3326,-0.4221,-0.4314, 1.5869,-1.3286,-0.4558
09-Sep-2020 11:15:39.984, 0.1035, 0.6763,-0.0799,-0.3954,-0.6880,-0.5082, 1.5962,-1.3328,-0.4418
09-Sep-2020 11:15:39.995, 0.1057, 0.6830,-0.0687,-0.5983,-1.0117,-0.6885, 1.6067,-1.3377,-0.4239
09-Sep-2020 11:15:40.004, 0.1352, 0.6858,-0.0553,-0.7943,-1.3574,-0.9359, 1.6231,-1.3443,-0.3968
09-Sep-2020 11:15:40.014, 0.1509, 0.6910,-0.0749,-0.9758,-1.7094,-1.2154, 1.6470,-1.3530,-0.3584
09-Sep-2020 11:15:40.024, 0.1520, 0.6594,-0.0813,-1.1982,-2.0761,-1.5085, 1.6799,-1.3641,-0.3074
09-Sep-2020 11:15:40.034, 0.1151, 0.5796,-0.0769,-1.6465,-2.3266,-1.8519, 1.7271,-1.3774,-0.2379
09-Sep-2020 11:15:40.044, 0.0434, 0.6508, 0.3636,-2.3885,-2.2974,-2.2217, 1.8113,-1.3922,-0.1291
09-Sep-2020 11:15:40.054, 0.0340, 0.5926, 0.2655,-2.6181,-2.4929,-2.2032, 1.9570,-1.4057, 0.0419
09-Sep-2020 11:15:40.064, 0.0768, 0.3852, 0.1216,-1.9221,-2.4400,-1.8049, 2.1322,-1.4133, 0.2443
09-Sep-2020 11:15:40.074, 0.1334, 0.3720, 0.0463,-0.7299,-1.9782,-1.2722, 2.2711,-1.4167, 0.4092
09-Sep-2020 11:15:40.084, 0.1488, 0.4216, 0.0952, 0.0451,-1.2331,-0.9116, 2.3433,-1.4211, 0.5021
09-Sep-2020 11:15:40.094, 0.1174, 0.4509, 0.1494, 0.2914,-0.4970,-0.8601, 2.3744,-1.4277, 0.5459
09-Sep-2020 11:15:40.104,-0.0030, 0.6833, 0.0328, 0.1096, 0.0008,-1.1305, 2.4018,-1.4356, 0.5787
09-Sep-2020 11:15:40.114,-0.0896, 0.9735,-0.1116,-0.2025,-0.2119,-1.6052, 2.4617,-1.4437, 0.6396
09-Sep-2020 11:15:40.124,-0.0135, 1.5069,-0.4817,-0.4175,-1.6298,-2.2517, 2.5711,-1.4517, 0.7530
09-Sep-2020 11:15:40.134, 0.0334, 3.5091,-0.6018,-0.8826,-2.8644,-3.2012, 2.7472,-1.4587, 0.9467
09-Sep-2020 11:15:40.144, 0.4559, 5.1018,-0.1394,-0.9631,-1.6999,-2.8778, 3.0063,-1.4584, 1.2346
09-Sep-2020 11:15:40.155, 0.4821, 4.0069, 0.5881,-0.9631,-1.6999,-2.8778,-3.0471,-1.4502, 1.4801
09-Sep-2020 11:15:40.164, 0.1130, 2.0779, 0.6295, 0.9405, 4.5539,-1.6869,-2.8486,-1.4473, 1.6569
09-Sep-2020 11:15:40.174, 0.0481, 0.9796, 0.1434, 1.1114, 4.8415,-1.4527,-2.6494,-1.4492, 1.8131
09-Sep-2020 11:15:40.184,-0.0427, 0.5090,-0.1519, 1.0189, 4.0017,-1.2746,-2.4530,-1.4503, 1.9631
09-Sep-2020 11:15:40.193,-0.0307, 0.3019,-0.3645, 1.0189, 4.0017,-1.2746,-2.2827,-1.4488, 2.0952
09-Sep-2020 11:15:40.203, 0.0525, 0.3550,-0.3854, 0.7923, 1.0280,-0.4838,-2.1606,-1.4464, 2.1944
09-Sep-2020 11:15:40.213, 0.0800, 0.5562,-0.0875, 0.8427, 0.4461,-0.1051,-2.0755,-1.4465, 2.2695
09-Sep-2020 11:15:40.223,-0.0275, 0.7234, 0.3302, 0.6183, 0.4695, 0.0400,-2.0074,-1.4492, 2.3332
09-Sep-2020 11:15:40.236,-0.1843, 0.9644, 0.5798, 0.1089, 0.5184,-0.0724,-1.9584,-1.4519, 2.3780
09-Sep-2020 11:15:40.243,-0.2600, 1.1930, 0.5157,-0.4093, 0.3484,-0.2993,-1.9426,-1.4516, 2.3888
09-Sep-2020 11:15:40.253,-0.2364, 1.2753, 0.3175,-0.7270,-0.0676,-0.4470,-1.9604,-1.4475, 2.3675
09-Sep-2020 11:15:40.263,-0.1618, 1.1958, 0.1341,-0.8248,-0.6169,-0.4791,-1.9986,-1.4408, 2.3298
09-Sep-2020 11:15:40.273,-0.1074, 1.0603, 0.0067,-0.7471,-1.1654,-0.4092,-2.0437,-1.4331, 2.2905
09-Sep-2020 11:15:40.283,-0.0807, 0.9426,-0.0582,-0.6242,-1.6709,-0.3010,-2.0876,-1.4261, 2.2579
09-Sep-2020 11:15:40.293,-0.0709, 0.8703,-0.0628,-0.5455,-2.0347,-0.1617,-2.1301,-1.4204, 2.2317
09-Sep-2020 11:15:40.303,-0.0650, 0.8294,-0.0276,-0.5054,-2.1677,-0.0238,-2.1742,-1.4162, 2.2075
09-Sep-2020 11:15:40.313,-0.0817, 0.8003, 0.0080,-0.4583,-2.0734, 0.0532,-2.2205,-1.4131, 2.1823
09-Sep-2020 11:15:40.323,-0.1069, 0.8184, 0.0302,-0.3858,-1.8190, 0.1045,-2.2654,-1.4107, 2.1577
09-Sep-2020 11:15:40.333,-0.1405, 0.8804, 0.0277,-0.3164,-1.4690, 0.1091,-2.3054,-1.4090, 2.1354
09-Sep-2020 11:15:40.343,-0.1798, 0.9877, 0.0264,-0.2594,-1.0448, 0.0689,-2.3386,-1.4077, 2.1165
09-Sep-2020 11:15:40.353,-0.1983, 1.0275, 0.0118,-0.1686,-0.5663, 0.0092,-2.3631,-1.4065, 2.1022
09-Sep-2020 11:15:40.363,-0.2147, 1.0558,-0.0096,-0.0290,-0.0756,-0.0513,-2.3761,-1.4055, 2.0948
09-Sep-2020 11:15:40.373,-0.2078, 1.0608,-0.0379, 0.0097, 0.1987,-0.1255,-2.3764,-1.4049, 2.0954
09-Sep-2020 11:15:40.382,-0.2018, 1.0499,-0.0632,-0.0461, 0.3276,-0.2204,-2.3690,-1.4041, 2.1009
09-Sep-2020 11:15:40.393,-0.2038, 1.0139,-0.0702,-0.0764, 0.4141,-0.2702,-2.3587,-1.4024, 2.1081
09-Sep-2020 11:15:40.403,-0.1942, 0.9562,-0.0820, 0.0098, 0.5343,-0.2328,-2.3467,-1.4001, 2.1161
09-Sep-2020 11:15:40.412,-0.1911, 0.9218,-0.0888, 0.1958, 0.6853,-0.1365,-2.3317,-1.3986, 2.1259
09-Sep-2020 11:15:40.422,-0.2023, 0.9147,-0.0735, 0.4016, 0.8740,-0.0341,-2.3114,-1.3990, 2.1396
09-Sep-2020 11:15:40.432,-0.2177, 0.9252,-0.0329, 0.5511, 1.0691, 0.0439,-2.2843,-1.4015, 2.1583
09-Sep-2020 11:15:40.443,-0.2294, 0.9510, 0.0210, 0.5787, 1.2318, 0.0814,-2.2508,-1.4054, 2.1815
09-Sep-2020 11:15:40.453,-0.2302, 0.9758, 0.0863, 0.5145, 1.3807, 0.0781,-2.2142,-1.4096, 2.2061
09-Sep-2020 11:15:40.462,-0.2231, 0.9881, 0.1455, 0.3829, 1.4610, 0.0561,-2.1779,-1.4132, 2.2291
09-Sep-2020 11:15:40.472,-0.2146, 0.9921, 0.1762, 0.2217, 1.4255, 0.0133,-2.1454,-1.4158, 2.2473
09-Sep-2020 11:15:40.482,-0.2076, 0.9970, 0.1792, 0.0793, 1.2624,-0.0282,-2.1197,-1.4172, 2.2591
09-Sep-2020 11:15:40.492,-0.1912, 1.0012, 0.1571,-0.0056, 0.9778,-0.0383,-2.1018,-1.4175, 2.2646
09-Sep-2020 11:15:40.502,-0.1810, 0.9940, 0.1246,-0.0463, 0.6281,-0.0266,-2.0910,-1.4173, 2.2657
09-Sep-2020 11:15:40.512,-0.1775, 0.9910, 0.1018,-0.0729, 0.2600, 0.0053,-2.0867,-1.4169, 2.2638
09-Sep-2020 11:15:40.522,-0.1848, 0.9960, 0.0896,-0.0830,-0.0533, 0.0224,-2.0883,-1.4167, 2.2595
09-Sep-2020 11:15:40.532,-0.1917, 1.0042, 0.0829,-0.0883,-0.2796, 0.0325,-2.0941,-1.4165, 2.2541
09-Sep-2020 11:15:40.542,-0.1832, 1.0047, 0.0733,-0.0991,-0.4257, 0.0399,-2.1028,-1.4164, 2.2481
09-Sep-2020 11:15:40.552,-0.1762, 1.0025, 0.0671,-0.1190,-0.4780, 0.0502,-2.1138,-1.4163, 2.2412
09-Sep-2020 11:15:40.562,-0.1711, 0.9984, 0.0640,-0.1420,-0.4678, 0.0623,-2.1268,-1.4162, 2.2328
09-Sep-2020 11:15:40.571,-0.1669, 0.9917, 0.0479,-0.1493,-0.4432, 0.0684,-2.1412,-1.4161, 2.2229
09-Sep-2020 11:15:40.582,-0.1620, 0.9743, 0.0245,-0.1229,-0.4173, 0.0746,-2.1559,-1.4159, 2.2126
09-Sep-2020 11:15:40.592,-0.1632, 0.9559, 0.0057,-0.0964,-0.3659, 0.0677,-2.1693,-1.4159, 2.2032
09-Sep-2020 11:15:40.602,-0.1701, 0.9651, 0.0032,-0.0688,-0.2963, 0.0605,-2.1805,-1.4160, 2.1956
09-Sep-2020 11:15:40.612,-0.1626, 0.9550, 0.0032,-0.0431,-0.2241, 0.0422,-2.1892,-1.4162, 2.1898
09-Sep-2020 11:15:40.621,-0.1538, 0.9730, 0.0098,-0.0346,-0.1272, 0.0228,-2.1954,-1.4163, 2.1857
09-Sep-2020 11:15:40.631,-0.1389, 0.9842, 0.0143,-0.0215,-0.0475, 0.0142,-2.1995,-1.4164, 2.1829
09-Sep-2020 11:15:40.641,-0.1261, 0.9944, 0.0107,-0.0036, 0.0005, 0.0081,-2.2017,-1.4165, 2.1812
09-Sep-2020 11:15:40.652,-0.1121, 1.0036, 0.0173, 0.0154, 0.0325, 0.0189,-2.2023,-1.4166, 2.1805
09-Sep-2020 11:15:40.661,-0.0990, 1.0012, 0.0316, 0.0303, 0.0453, 0.0337,-2.2020,-1.4169, 2.1806
09-Sep-2020 11:15:40.671,-0.0939, 0.9959, 0.0461, 0.0383, 0.0212, 0.0404,-2.2012,-1.4174, 2.1809
09-Sep-2020 11:15:40.681,-0.0913, 0.9859, 0.0602, 0.0304,-0.0324, 0.0382,-2.2007,-1.4180, 2.1813
09-Sep-2020 11:15:40.691,-0.0885, 0.9807, 0.0715, 0.0113,-0.0910, 0.0377,-2.1993,-1.4186, 2.1830
09-Sep-2020 11:15:40.702,-0.0884, 0.9844, 0.0826,-0.0176,-0.1353, 0.0288,-2.1995,-1.4191, 2.1837
09-Sep-2020 11:15:40.711,-0.0889, 0.9911, 0.0880,-0.0545,-0.1733, 0.0141,-2.2015,-1.4193, 2.1830
09-Sep-2020 11:15:40.721,-0.0895, 0.9991, 0.0784,-0.0791,-0.1962,-0.0025,-2.2053,-1.4193, 2.1809
09-Sep-2020 11:15:40.731,-0.0901, 1.0028, 0.0599,-0.0796,-0.2064,-0.0109,-2.2101,-1.4190, 2.1780
09-Sep-2020 11:15:40.741,-0.0977, 0.9961, 0.0441,-0.0599,-0.1946,-0.0045,-2.2149,-1.4187, 2.1751
09-Sep-2020 11:15:40.751,-0.1120, 0.9863, 0.0361,-0.0599,-0.1946,-0.0045,-2.2192,-1.4185, 2.1727
09-Sep-2020 11:15:40.761,-0.1305, 0.9890, 0.0339,-0.0289,-0.1270, 0.0044,-2.2225,-1.4185, 2.1711
09-Sep-2020 11:15:40.771,-0.1520, 0.9916, 0.0357,-0.0391,-0.0857,-0.0148,-2.2253,-1.4186, 2.1696
09-Sep-2020 11:15:40.781,-0.1643, 0.9910, 0.0350,-0.0571,-0.0240,-0.0270,-2.2276,-1.4184, 2.1681
09-Sep-2020 11:15:40.791,-0.1654, 0.9939, 0.0441,-0.0749, 0.0598,-0.0318,-2.2299,-1.4180, 2.1660
09-Sep-2020 11:15:40.801,-0.1615, 0.9810, 0.0425,-0.0753, 0.1502,-0.0278,-2.2321,-1.4175, 2.1631
09-Sep-2020 11:15:40.811,-0.1590, 0.9683, 0.0293,-0.0326, 0.2107,-0.0165,-2.2334,-1.4170, 2.1604
09-Sep-2020 11:15:40.820,-0.1606, 0.9659, 0.0163, 0.0361, 0.2259, 0.0014,-2.2321,-1.4168, 2.1595
09-Sep-2020 11:15:40.830,-0.1582, 0.9749, 0.0331, 0.0881, 0.2262, 0.0180,-2.2278,-1.4173, 2.1616
09-Sep-2020 11:15:40.840,-0.1542, 0.9787, 0.0625, 0.0815, 0.2010, 0.0202,-2.2214,-1.4181, 2.1659
09-Sep-2020 11:15:40.850,-0.1517, 0.9894, 0.0918, 0.0276, 0.1648, 0.0069,-2.2153,-1.4189, 2.1700
09-Sep-2020 11:15:40.860,-0.1510, 0.9992, 0.1014,-0.0252, 0.1210,-0.0064,-2.2115,-1.4192, 2.1722
09-Sep-2020 11:15:40.870,-0.1462, 1.0056, 0.0954,-0.0564, 0.0573,-0.0014,-2.2103,-1.4191, 2.1722
09-Sep-2020 11:15:40.880,-0.1417, 1.0048, 0.0873,-0.0693,-0.0158, 0.0056,-2.2115,-1.4188, 2.1704
09-Sep-2020 11:15:40.890,-0.1397, 1.0040, 0.0712,-0.0634,-0.1205, 0.0075,-2.2144,-1.4185, 2.1676
09-Sep-2020 11:15:40.900,-0.1332, 1.0030, 0.0509,-0.0492,-0.2235, 0.0192,-2.2179,-1.4183, 2.1653
09-Sep-2020 11:15:40.910,-0.1243, 1.0040, 0.0512,-0.0567,-0.2658, 0.0252,-2.2220,-1.4182, 2.1633
09-Sep-2020 11:15:40.920,-0.1227, 1.0077, 0.0602,-0.0763,-0.2607, 0.0309,-2.2274,-1.4182, 2.1605
09-Sep-2020 11:15:40.930,-0.1217, 1.0043, 0.0565,-0.0928,-0.2314, 0.0295,-2.2343,-1.4180, 2.1562
09-Sep-2020 11:15:40.940,-0.1167, 0.9973, 0.0443,-0.0875,-0.1997, 0.0385,-2.2421,-1.4177, 2.1506
09-Sep-2020 11:15:40.950,-0.1103, 0.9905, 0.0314,-0.0833,-0.1749, 0.0538,-2.2499,-1.4175, 2.1446
09-Sep-2020 11:15:40.960,-0.1068, 0.9831, 0.0336,-0.0781,-0.1466, 0.0635,-2.2578,-1.4174, 2.1384
09-Sep-2020 11:15:40.970,-0.1052, 0.9779, 0.0423,-0.0741,-0.1148, 0.0684,-2.2654,-1.4175, 2.1322
09-Sep-2020 11:15:40.980,-0.1017, 0.9718, 0.0509,-0.0818,-0.0971, 0.0597,-2.2726,-1.4176, 2.1261
09-Sep-2020 11:15:40.990,-0.0976, 0.9729, 0.0562,-0.0852,-0.0885, 0.0362,-2.2794,-1.4177, 2.1202
09-Sep-2020 11:15:40.999,-0.0916, 0.9724, 0.0589,-0.0587,-0.0614, 0.0200,-2.2853,-1.4176, 2.1151
09-Sep-2020 11:15:41.010,-0.0842, 0.9652, 0.0626,-0.0215, 0.0001, 0.0113,-2.2891,-1.4175, 2.1119
09-Sep-2020 11:15:41.020,-0.0789, 0.9650, 0.0632, 0.0586, 0.0949, 0.0321,-2.2900,-1.4176, 2.1109
09-Sep-2020 11:15:41.029,-0.0948, 1.0209, 0.0654, 0.0433, 0.1345, 0.0715,-2.2874,-1.4184, 2.1126
09-Sep-2020 11:15:41.039,-0.1223, 1.0014, 0.0624,-0.0158, 0.1033, 0.0669,-2.2863,-1.4193, 2.1124
09-Sep-2020 11:15:41.049,-0.1400, 0.9759, 0.0548,-0.0014, 0.1164, 0.0523,-2.2879,-1.4200, 2.1097
09-Sep-2020 11:15:41.060,-0.1397, 0.9700, 0.0765, 0.0243, 0.1435, 0.0427,-2.2885,-1.4205, 2.1079
09-Sep-2020 11:15:41.069,-0.1274, 0.9727, 0.0953, 0.0105, 0.1215, 0.0373,-2.2876,-1.4212, 2.1074
09-Sep-2020 11:15:41.079,-0.1199, 0.9901, 0.1004,-0.0298, 0.0909, 0.0363,-2.2873,-1.4217, 2.1065
09-Sep-2020 11:15:41.089,-0.1171, 0.9954, 0.1045,-0.0650, 0.0648, 0.0387,-2.2893,-1.4220, 2.1036
09-Sep-2020 11:15:41.099,-0.1133, 0.9907, 0.1040,-0.0869, 0.0554, 0.0342,-2.2934,-1.4220, 2.0988
09-Sep-2020 11:15:41.109,-0.1087, 0.9829, 0.0988,-0.0926, 0.0399, 0.0357,-2.2987,-1.4219, 2.0929
09-Sep-2020 11:15:41.119,-0.1054, 0.9870, 0.0889,-0.0829, 0.0195, 0.0353,-2.3042,-1.4217, 2.0869
09-Sep-2020 11:15:41.129,-0.1017, 0.9973, 0.0754,-0.0622,-0.0024, 0.0392,-2.3091,-1.4215, 2.0817
09-Sep-2020 11:15:41.139,-0.0966, 1.0036, 0.0696,-0.0428, 0.0042, 0.0489,-2.3132,-1.4215, 2.0776
09-Sep-2020 11:15:41.149,-0.0965, 1.0053, 0.0715,-0.0251, 0.0339, 0.0490,-2.3168,-1.4216, 2.0738
09-Sep-2020 11:15:41.159,-0.1055, 1.0075, 0.0671,-0.0254, 0.0561, 0.0559,-2.3199,-1.4219, 2.0704
09-Sep-2020 11:15:41.169,-0.1176, 0.9996, 0.0603,-0.0430, 0.0482, 0.0555,-2.3230,-1.4222, 2.0667
09-Sep-2020 11:15:41.179,-0.1358, 0.9884, 0.0496,-0.0638,-0.0058, 0.0587,-2.3273,-1.4223, 2.0620
09-Sep-2020 11:15:41.189,-0.1557, 0.9843, 0.0338,-0.0683,-0.0630, 0.0517,-2.3331,-1.4224, 2.0562
09-Sep-2020 11:15:41.198,-0.1697, 0.9838, 0.0280,-0.0640,-0.1071, 0.0439,-2.3394,-1.4224, 2.0504
09-Sep-2020 11:15:41.209,-0.1789, 0.9814, 0.0340,-0.0570,-0.1360, 0.0315,-2.3455,-1.4224, 2.0454
09-Sep-2020 11:15:41.218,-0.1798, 0.9811, 0.0444,-0.0437,-0.1431, 0.0265,-2.3509,-1.4223, 2.0413
09-Sep-2020 11:15:41.229,-0.1751, 0.9847, 0.0553,-0.0314,-0.1599, 0.0210,-2.3554,-1.4224, 2.0381
09-Sep-2020 11:15:41.238,-0.1729, 0.9925, 0.0632,-0.0337,-0.2054, 0.0159,-2.3594,-1.4224, 2.0358
09-Sep-2020 11:15:41.248,-0.1703, 0.9841, 0.0646,-0.0543,-0.2756, 0.0024,-2.3635,-1.4224, 2.0337
09-Sep-2020 11:15:41.258,-0.1594, 0.9676, 0.0613,-0.0627,-0.3322,-0.0021,-2.3684,-1.4222, 2.0315
09-Sep-2020 11:15:41.268,-0.1445, 0.9600, 0.0567,-0.0477,-0.3492, 0.0041,-2.3736,-1.4219, 2.0295
09-Sep-2020 11:15:41.278,-0.1315, 0.9568, 0.0613,-0.0267,-0.3346, 0.0099,-2.3782,-1.4217, 2.0284
09-Sep-2020 11:15:41.288,-0.1198, 0.9604, 0.0674,-0.0310,-0.2987,-0.0066,-2.3817,-1.4217, 2.0282
09-Sep-2020 11:15:41.298,-0.1115, 0.9801, 0.0726,-0.0388,-0.2608,-0.0194,-2.3843,-1.4215, 2.0285
09-Sep-2020 11:15:41.308,-0.1159, 0.9901, 0.0613,-0.0159,-0.2251,-0.0063,-2.3863,-1.4212, 2.0291
09-Sep-2020 11:15:41.318,-0.1261, 0.9863, 0.0556, 0.0048,-0.1869,-0.0106,-2.3876,-1.4210, 2.0300
09-Sep-2020 11:15:41.328,-0.1310, 0.9902, 0.0647, 0.0032,-0.1600,-0.0182,-2.3877,-1.4210, 2.0318
09-Sep-2020 11:15:41.338,-0.1280, 0.9883, 0.0647,-0.0243,-0.1675,-0.0364,-2.3873,-1.4209, 2.0338
09-Sep-2020 11:15:41.348,-0.1083, 0.9825, 0.0650,-0.0370,-0.1662,-0.0413,-2.3872,-1.4206, 2.0355
09-Sep-2020 11:15:41.358,-0.0864, 0.9752, 0.0667,-0.0295,-0.1373,-0.0331,-2.3877,-1.4202, 2.0367
09-Sep-2020 11:15:41.369,-0.0836, 0.9678, 0.0616, 0.0006,-0.1175,-0.0291,-2.3881,-1.4198, 2.0378
09-Sep-2020 11:15:41.378,-0.0845, 0.9722, 0.0583, 0.0219,-0.0978,-0.0327,-2.3873,-1.4197, 2.0397
09-Sep-2020 11:15:41.388,-0.0900, 0.9928, 0.0661, 0.0308,-0.0601,-0.0299,-2.3855,-1.4198, 2.0425
09-Sep-2020 11:15:41.398,-0.0965, 0.9965, 0.0824, 0.0367,-0.0079,-0.0257,-2.3828,-1.4199, 2.0458
09-Sep-2020 11:15:41.408,-0.1004, 1.0010, 0.0903, 0.0381, 0.0249,-0.0209,-2.3794,-1.4201, 2.0493
09-Sep-2020 11:15:41.418,-0.0977, 1.0138, 0.0907, 0.0295, 0.0254,-0.0190,-2.3759,-1.4203, 2.0526
09-Sep-2020 11:15:41.428,-0.0930, 1.0223, 0.0948, 0.0129, 0.0041,-0.0135,-2.3729,-1.4205, 2.0554
09-Sep-2020 11:15:41.437,-0.0898, 1.0196, 0.0992,-0.0123,-0.0380,-0.0085,-2.3714,-1.4206, 2.0569
09-Sep-2020 11:15:41.448,-0.0931, 1.0070, 0.0974,-0.0339,-0.0921,-0.0046,-2.3717,-1.4206, 2.0569
09-Sep-2020 11:15:41.457,-0.1009, 0.9944, 0.0923,-0.0549,-0.1320,-0.0037,-2.3739,-1.4205, 2.0557
09-Sep-2020 11:15:41.467,-0.1069, 0.9919, 0.0919,-0.0592,-0.1416,-0.0145,-2.3773,-1.4203, 2.0536
09-Sep-2020 11:15:41.477,-0.1093, 0.9958, 0.0938,-0.0515,-0.1464,-0.0287,-2.3805,-1.4200, 2.0518
09-Sep-2020 11:15:41.487,-0.1015, 0.9862, 0.0912,-0.0400,-0.1508,-0.0212,-2.3828,-1.4196, 2.0508
09-Sep-2020 11:15:41.497,-0.0926, 0.9638, 0.0835,-0.0303,-0.1531, 0.0064,-2.3851,-1.4193, 2.0501
09-Sep-2020 11:15:41.507,-0.0965, 0.9543, 0.0797,-0.0359,-0.1421, 0.0269,-2.3883,-1.4192, 2.0484
09-Sep-2020 11:15:41.517,-0.1062, 0.9628, 0.0780,-0.0331,-0.1099, 0.0298,-2.3925,-1.4192, 2.0455
09-Sep-2020 11:15:41.527,-0.1088, 0.9763, 0.0773,-0.0199,-0.0876, 0.0199,-2.3966,-1.4193, 2.0426
09-Sep-2020 11:15:41.537,-0.1076, 0.9922, 0.0762,-0.0175,-0.0828, 0.0040,-2.3994,-1.4194, 2.0406
09-Sep-2020 11:15:41.547,-0.1018, 0.9849, 0.0845,-0.0478,-0.0653, 0.0276,-2.4014,-1.4194, 2.0394
09-Sep-2020 11:15:41.557,-0.0992, 0.9849, 0.0844,-0.0479,-0.0682, 0.0131,-2.4051,-1.4194, 2.0364
09-Sep-2020 11:15:41.567,-0.1021, 1.0010, 0.0668,-0.0401,-0.0616,-0.0174,-2.4083,-1.4192, 2.0338
09-Sep-2020 11:15:41.577,-0.0892, 0.9928, 0.0731,-0.0308,-0.0304,-0.0234,-2.4098,-1.4189, 2.0329
09-Sep-2020 11:15:41.587,-0.0829, 0.9897, 0.0729,-0.0205, 0.0099,-0.0123,-2.4103,-1.4187, 2.0327
09-Sep-2020 11:15:41.597,-0.0895, 0.9920, 0.0718,-0.0085, 0.0323,-0.0072,-2.4104,-1.4186, 2.0325
09-Sep-2020 11:15:41.607,-0.1019, 0.9903, 0.0688, 0.0074, 0.0427, 0.0089,-2.4099,-1.4186, 2.0326
09-Sep-2020 11:15:41.617,-0.1224, 0.9897, 0.0619, 0.0321, 0.0285, 0.0085,-2.4092,-1.4188, 2.0329
09-Sep-2020 11:15:41.627,-0.1395, 0.9897, 0.0610, 0.0242, 0.0207,-0.0040,-2.4077,-1.4192, 2.0341
09-Sep-2020 11:15:41.637,-0.1484, 0.9879, 0.0739, 0.0100, 0.0052,-0.0047,-2.4061,-1.4195, 2.0356
09-Sep-2020 11:15:41.647,-0.1508, 0.9832, 0.0812, 0.0039, 0.0055, 0.0028,-2.4052,-1.4197, 2.0364
09-Sep-2020 11:15:41.657,-0.1503, 0.9783, 0.0873, 0.0170,-0.0108,-0.0072,-2.4047,-1.4199, 2.0369
09-Sep-2020 11:15:41.667,-0.1504, 0.9838, 0.0961, 0.0148,-0.0174,-0.0232,-2.4037,-1.4201, 2.0380
09-Sep-2020 11:15:41.677,-0.1476, 0.9931, 0.1034, 0.0096,-0.0315,-0.0407,-2.4020,-1.4202, 2.0399
09-Sep-2020 11:15:41.687,-0.1418, 1.0000, 0.1057,-0.0031,-0.0608,-0.0310,-2.4000,-1.4201, 2.0423
09-Sep-2020 11:15:41.696,-0.1395, 0.9967, 0.1015,-0.0179,-0.1250,-0.0146,-2.3989,-1.4201, 2.0440
09-Sep-2020 11:15:41.706,-0.1460, 0.9936, 0.0940,-0.0322,-0.2214, 0.0002,-2.3997,-1.4200, 2.0445
09-Sep-2020 11:15:41.716,-0.1479, 0.9850, 0.0867,-0.0401,-0.3277,-0.0012,-2.4024,-1.4198, 2.0439
09-Sep-2020 11:15:41.726,-0.1472, 0.9783, 0.0793,-0.0371,-0.3964,-0.0154,-2.4066,-1.4196, 2.0430
09-Sep-2020 11:15:41.736,-0.1417, 0.9702, 0.0795,-0.0230,-0.4164,-0.0276,-2.4108,-1.4193, 2.0427
09-Sep-2020 11:15:41.746,-0.1308, 0.9633, 0.0748, 0.0047,-0.4033,-0.0426,-2.4138,-1.4190, 2.0438
09-Sep-2020 11:15:41.756,-0.1169, 0.9650, 0.0705, 0.0190,-0.3693,-0.0584,-2.4151,-1.4188, 2.0466
09-Sep-2020 11:15:41.766,-0.1020, 0.9664, 0.0721, 0.0267,-0.3125,-0.0721,-2.4147,-1.4185, 2.0507
09-Sep-2020 11:15:41.776,-0.0884, 0.9694, 0.0682, 0.0383,-0.2434,-0.0800,-2.4129,-1.4183, 2.0556
09-Sep-2020 11:15:41.786,-0.0737, 0.9803, 0.0698, 0.0387,-0.1737,-0.0900,-2.4095,-1.4181, 2.0614
09-Sep-2020 11:15:41.796,-0.0585, 0.9808, 0.0783, 0.0346,-0.0881,-0.0881,-2.4048,-1.4179, 2.0679
09-Sep-2020 11:15:41.806,-0.0491, 0.9812, 0.0840, 0.0372, 0.0022,-0.0680,-2.3995,-1.4176, 2.0742
09-Sep-2020 11:15:41.816,-0.0457, 0.9918, 0.0958, 0.0341, 0.0807,-0.0523,-2.3940,-1.4175, 2.0798
09-Sep-2020 11:15:41.826,-0.0506, 1.0024, 0.1119, 0.0168, 0.1285,-0.0345,-2.3887,-1.4174, 2.0843
09-Sep-2020 11:15:41.836,-0.0572, 1.0109, 0.1205,-0.0136, 0.1365,-0.0228,-2.3846,-1.4174, 2.0872
09-Sep-2020 11:15:41.846,-0.0621, 1.0152, 0.1115,-0.0398, 0.1020,-0.0152,-2.3824,-1.4172, 2.0880
09-Sep-2020 11:15:41.856,-0.0629, 1.0057, 0.0899,-0.0395, 0.0326,-0.0057,-2.3822,-1.4170, 2.0872
09-Sep-2020 11:15:41.866,-0.0637, 0.9904, 0.0589,-0.0145,-0.0420, 0.0128,-2.3832,-1.4168, 2.0860
09-Sep-2020 11:15:41.876,-0.0682, 0.9757, 0.0499, 0.0010,-0.0544, 0.0250,-2.3848,-1.4170, 2.0847
09-Sep-2020 11:15:41.886,-0.0728, 0.9581, 0.0526, 0.0168,-0.0432, 0.0275,-2.3867,-1.4174, 2.0833
09-Sep-2020 11:15:41.895,-0.0755, 0.9600, 0.0473, 0.0166,-0.0108, 0.0248,-2.3882,-1.4179, 2.0823
09-Sep-2020 11:15:41.906,-0.0754, 0.9813, 0.0480, 0.0337, 0.0593, 0.0293,-2.3892,-1.4183, 2.0813
09-Sep-2020 11:15:41.915,-0.0736, 0.9978, 0.0553, 0.0588, 0.1633, 0.0358,-2.3891,-1.4189, 2.0808
09-Sep-2020 11:15:41.925,-0.0762, 1.0057, 0.0662, 0.0772, 0.2712, 0.0494,-2.3873,-1.4197, 2.0811
09-Sep-2020 11:15:41.936,-0.0899, 0.9981, 0.0813, 0.0809, 0.3523, 0.0539,-2.3841,-1.4208, 2.0816
09-Sep-2020 11:15:41.945,-0.1113, 0.9894, 0.0919, 0.0728, 0.4046, 0.0509,-2.3799,-1.4219, 2.0823
09-Sep-2020 11:15:41.955,-0.1310, 0.9872, 0.0952, 0.0700, 0.4102, 0.0380,-2.3751,-1.4230, 2.0832
09-Sep-2020 11:15:41.965,-0.1450, 0.9878, 0.0955, 0.0600, 0.3781, 0.0312,-2.3695,-1.4240, 2.0847
09-Sep-2020 11:15:41.975,-0.1521, 0.9896, 0.1028, 0.0248, 0.3274, 0.0322,-2.3645,-1.4248, 2.0860
09-Sep-2020 11:15:41.985,-0.1536, 0.9931, 0.1071,-0.0124, 0.2818, 0.0369,-2.3615,-1.4254, 2.0857
09-Sep-2020 11:15:41.995,-0.1473, 0.9981, 0.0946,-0.0114, 0.2196, 0.0428,-2.3609,-1.4258, 2.0835
09-Sep-2020 11:15:42.005,-0.1406, 0.9996, 0.0647, 0.0415, 0.1002, 0.0323,-2.3610,-1.4262, 2.0812
09-Sep-2020 11:15:42.015,-0.1292, 0.9888, 0.0537, 0.0800, 0.0225, 0.0492,-2.3597,-1.4269, 2.0815
09-Sep-2020 11:15:42.025,-0.1125, 0.9744, 0.0715, 0.0332,-0.0959, 0.0686,-2.3583,-1.4279, 2.0828
09-Sep-2020 11:15:42.035,-0.0966, 0.9410, 0.0696, 0.0362,-0.0758, 0.0888,-2.3605,-1.4288, 2.0813
09-Sep-2020 11:15:42.045,-0.0918, 0.9636, 0.0827, 0.0322, 0.0271, 0.0682,-2.3636,-1.4297, 2.0790
09-Sep-2020 11:15:42.055,-0.0955, 0.9889, 0.0825, 0.0070, 0.1803, 0.0385,-2.3649,-1.4304, 2.0774
09-Sep-2020 11:15:42.065,-0.0882, 0.9911, 0.0650, 0.0670, 0.3175, 0.0277,-2.3640,-1.4307, 2.0764
09-Sep-2020 11:15:42.075,-0.0855, 1.0129, 0.0389, 0.1435, 0.3781, 0.0506,-2.3588,-1.4314, 2.0786
09-Sep-2020 11:15:42.085,-0.0887, 1.0374, 0.0448, 0.1725, 0.3933, 0.0565,-2.3500,-1.4328, 2.0837
09-Sep-2020 11:15:42.095,-0.0967, 1.0364, 0.0714, 0.1697, 0.3871, 0.0660,-2.3403,-1.4344, 2.0895
09-Sep-2020 11:15:42.104,-0.1045, 1.0198, 0.0895, 0.1804, 0.3280, 0.1055,-2.3312,-1.4362, 2.0949
09-Sep-2020 11:15:42.115,-0.1136, 1.0094, 0.0869, 0.1504, 0.1967, 0.0999,-2.3237,-1.4382, 2.0992
09-Sep-2020 11:15:42.124,-0.1143, 1.0119, 0.0842, 0.1079, 0.0013, 0.0861,-2.3188,-1.4400, 2.1022
09-Sep-2020 11:15:42.134,-0.1047, 1.0108, 0.0797, 0.1082,-0.1168, 0.1110,-2.3172,-1.4415, 2.1037
09-Sep-2020 11:15:42.144,-0.0922, 1.0125, 0.0883, 0.1163,-0.1728, 0.1342,-2.3180,-1.4431, 2.1041
09-Sep-2020 11:15:42.154,-0.0881, 1.0006, 0.0835, 0.0549,-0.2029, 0.1458,-2.3205,-1.4449, 2.1032
09-Sep-2020 11:15:42.164,-0.0882, 0.9808, 0.0654, 0.0044,-0.2261, 0.1467,-2.3268,-1.4465, 2.0990
09-Sep-2020 11:15:42.174,-0.0887, 0.9749, 0.0430,-0.0382,-0.2277, 0.1373,-2.3366,-1.4478, 2.0913
09-Sep-2020 11:15:42.184,-0.0964, 0.9757, 0.0331,-0.0518,-0.2101, 0.1229,-2.3486,-1.4486, 2.0815
09-Sep-2020 11:15:42.194,-0.1032, 0.9729, 0.0225,-0.0556,-0.1754, 0.1101,-2.3609,-1.4492, 2.0713
09-Sep-2020 11:15:42.204,-0.1096, 0.9785, 0.0188,-0.0537,-0.1253, 0.1006,-2.3724,-1.4496, 2.0614
09-Sep-2020 11:15:42.214,-0.1197, 0.9821, 0.0184,-0.0424,-0.0579, 0.0888,-2.3827,-1.4500, 2.0523
09-Sep-2020 11:15:42.224,-0.1265, 0.9816, 0.0125,-0.0112,-0.0021, 0.0769,-2.3911,-1.4504, 2.0444
09-Sep-2020 11:15:42.238,-0.1310, 0.9862, 0.0120, 0.0149, 0.0410, 0.0650,-2.3967,-1.4509, 2.0388
09-Sep-2020 11:15:42.244,-0.1334, 0.9867, 0.0175, 0.0286, 0.0739, 0.0476,-2.3995,-1.4515, 2.0356
09-Sep-2020 11:15:42.254,-0.1281, 0.9842, 0.0238, 0.0344, 0.0906, 0.0360,-2.4000,-1.4521, 2.0344
09-Sep-2020 11:15:42.263,-0.1198, 0.9825, 0.0287, 0.0318, 0.0931, 0.0251,-2.3990,-1.4527, 2.0345
09-Sep-2020 11:15:42.273,-0.1083, 0.9839, 0.0312, 0.0280, 0.0831, 0.0219,-2.3971,-1.4533, 2.0354
09-Sep-2020 11:15:42.283,-0.0958, 0.9891, 0.0360, 0.0232, 0.0756, 0.0194,-2.3952,-1.4538, 2.0365
09-Sep-2020 11:15:42.293,-0.0860, 0.9948, 0.0414, 0.0214, 0.0745, 0.0238,-2.3934,-1.4542, 2.0375
09-Sep-2020 11:15:42.303,-0.0783, 0.9994, 0.0451, 0.0250, 0.0837, 0.0283,-2.3918,-1.4546, 2.0384
09-Sep-2020 11:15:42.313,-0.0745, 1.0007, 0.0482, 0.0266, 0.0944, 0.0365,-2.3900,-1.4551, 2.0393
09-Sep-2020 11:15:42.323,-0.0758, 1.0002, 0.0542, 0.0270, 0.1042, 0.0410,-2.3884,-1.4557, 2.0400
09-Sep-2020 11:15:42.333,-0.0787, 1.0015, 0.0563, 0.0210, 0.0946, 0.0492,-2.3871,-1.4562, 2.0403
09-Sep-2020 11:15:42.343,-0.0818, 1.0032, 0.0558, 0.0151, 0.0787, 0.0569,-2.3869,-1.4568, 2.0395
09-Sep-2020 11:15:42.353,-0.0844, 1.0024, 0.0560, 0.0109, 0.0649, 0.0679,-2.3878,-1.4574, 2.0378
09-Sep-2020 11:15:42.363,-0.0868, 1.0000, 0.0571, 0.0123, 0.0518, 0.0719,-2.3899,-1.4580, 2.0351
09-Sep-2020 11:15:42.373,-0.0878, 1.0005, 0.0582, 0.0066, 0.0425, 0.0812,-2.3928,-1.4587, 2.0317
09-Sep-2020 11:15:42.383,-0.0889, 0.9997, 0.0577, 0.0069, 0.0375, 0.0854,-2.3968,-1.4594, 2.0272
09-Sep-2020 11:15:42.393,-0.0891, 1.0006, 0.0561,-0.0023, 0.0292, 0.0957,-2.4015,-1.4602, 2.0220
09-Sep-2020 11:15:42.403,-0.0908, 1.0025, 0.0542,-0.0051, 0.0217, 0.1028,-2.4075,-1.4610, 2.0158
09-Sep-2020 11:15:42.413,-0.0923, 1.0073, 0.0530,-0.0080, 0.0110, 0.1043,-2.4143,-1.4617, 2.0087
09-Sep-2020 11:15:42.423,-0.0903, 1.0126, 0.0525,-0.0119,-0.0066, 0.1110,-2.4219,-1.4624, 2.0010
09-Sep-2020 11:15:42.433,-0.0863, 1.0125, 0.0495,-0.0082,-0.0234, 0.1206,-2.4301,-1.4632, 1.9928
09-Sep-2020 11:15:42.443,-0.0824, 1.0098, 0.0476,-0.0056,-0.0325, 0.1274,-2.4390,-1.4640, 1.9840
09-Sep-2020 11:15:42.453,-0.0759, 1.0062, 0.0453,-0.0051,-0.0466, 0.1332,-2.4486,-1.4649, 1.9748
09-Sep-2020 11:15:42.463,-0.0695, 0.9979, 0.0422,-0.0051,-0.0466, 0.1332,-2.4589,-1.4657, 1.9649
09-Sep-2020 11:15:42.473,-0.0647, 0.9896, 0.0433,-0.0142,-0.0435, 0.1536,-2.4703,-1.4666, 1.9539
09-Sep-2020 11:15:42.483,-0.0625, 0.9848, 0.0513,-0.0169,-0.0187, 0.1577,-2.4826,-1.4676, 1.9420
09-Sep-2020 11:15:42.493,-0.0594, 0.9827, 0.0553,-0.0083, 0.0042, 0.1614,-2.4953,-1.4685, 1.9294
09-Sep-2020 11:15:42.503,-0.0561, 0.9848, 0.0568,-0.0046, 0.0204, 0.1601,-2.5078,-1.4695, 1.9168
09-Sep-2020 11:15:42.513,-0.0555, 0.9875, 0.0574,-0.0089, 0.0199, 0.1595,-2.5202,-1.4705, 1.9041
09-Sep-2020 11:15:42.523,-0.0554, 0.9900, 0.0551,-0.0119, 0.0226, 0.1476,-2.5328,-1.4714, 1.8913
09-Sep-2020 11:15:42.532,-0.0569, 0.9925, 0.0550,-0.0181, 0.0288, 0.1345,-2.5449,-1.4722, 1.8789
09-Sep-2020 11:15:42.542,-0.0591, 0.9897, 0.0525,-0.0207, 0.0447, 0.1231,-2.5564,-1.4730, 1.8670
09-Sep-2020 11:15:42.552,-0.0627, 0.9857, 0.0447,-0.0235, 0.0508, 0.1131,-2.5672,-1.4736, 1.8558
09-Sep-2020 11:15:42.562,-0.0698, 0.9799, 0.0359,-0.0207, 0.0515, 0.1031,-2.5773,-1.4741, 1.8451
09-Sep-2020 11:15:42.572,-0.0792, 0.9744, 0.0281,-0.0123, 0.0419, 0.0881,-2.5867,-1.4746, 1.8352
09-Sep-2020 11:15:42.582,-0.0865, 0.9709, 0.0259,-0.0031, 0.0373, 0.0641,-2.5945,-1.4750, 1.8269
09-Sep-2020 11:15:42.592,-0.0917, 0.9707, 0.0288, 0.0063, 0.0457, 0.0456,-2.6000,-1.4755, 1.8210
09-Sep-2020 11:15:42.602,-0.0936, 0.9713, 0.0335, 0.0099, 0.0622, 0.0281,-2.6032,-1.4759, 1.8174
09-Sep-2020 11:15:42.612,-0.0927, 0.9768, 0.0414, 0.0131, 0.0727, 0.0078,-2.6044,-1.4762, 1.8155
09-Sep-2020 11:15:42.622,-0.0825, 0.9857, 0.0502, 0.0105, 0.0705,-0.0022,-2.6037,-1.4764, 1.8155
09-Sep-2020 11:15:42.632,-0.0660, 0.9946, 0.0570, 0.0097, 0.0415,-0.0035,-2.6023,-1.4766, 1.8163
09-Sep-2020 11:15:42.642,-0.0529, 0.9992, 0.0620, 0.0051, 0.0017,-0.0046,-2.6009,-1.4768, 1.8173
09-Sep-2020 11:15:42.652,-0.0430, 0.9997, 0.0679,-0.0146,-0.0342,-0.0003,-2.5999,-1.4769, 1.8182
09-Sep-2020 11:15:42.662,-0.0399, 0.9989, 0.0739,-0.0340,-0.0498, 0.0064,-2.6004,-1.4769, 1.8181
09-Sep-2020 11:15:42.672,-0.0399, 0.9971, 0.0777,-0.0420,-0.0440, 0.0100,-2.6023,-1.4768, 1.8166
09-Sep-2020 11:15:42.682,-0.0408, 0.9944, 0.0775,-0.0442,-0.0304, 0.0122,-2.6050,-1.4766, 1.8144
09-Sep-2020 11:15:42.692,-0.0407, 0.9924, 0.0746,-0.0433,-0.0241, 0.0134,-2.6078,-1.4764, 1.8118
09-Sep-2020 11:15:42.702,-0.0385, 0.9925, 0.0732,-0.0386,-0.0172, 0.0109,-2.6108,-1.4762, 1.8091
09-Sep-2020 11:15:42.711,-0.0364, 0.9933, 0.0697,-0.0419,-0.0071, 0.0076,-2.6135,-1.4760, 1.8065
09-Sep-2020 11:15:42.722,-0.0331, 0.9933, 0.0709,-0.0467, 0.0065, 0.0075,-2.6163,-1.4758, 1.8038
09-Sep-2020 11:15:42.731,-0.0303, 0.9926, 0.0749,-0.0467, 0.0065, 0.0075,-2.6195,-1.4755, 1.8005
09-Sep-2020 11:15:42.741,-0.0283, 0.9931, 0.0753,-0.0459, 0.0312, 0.0075,-2.6230,-1.4752, 1.7968
09-Sep-2020 11:15:42.751,-0.0253, 0.9950, 0.0721,-0.0423, 0.0402, 0.0095,-2.6262,-1.4750, 1.7933
09-Sep-2020 11:15:42.761,-0.0215, 0.9943, 0.0656,-0.0362, 0.0514, 0.0110,-2.6291,-1.4747, 1.7900
09-Sep-2020 11:15:42.771,-0.0205, 0.9923, 0.0623,-0.0343, 0.0751, 0.0126,-2.6319,-1.4746, 1.7867
09-Sep-2020 11:15:42.781,-0.0237, 0.9874, 0.0596,-0.0356, 0.1127, 0.0148,-2.6345,-1.4744, 1.7833
09-Sep-2020 11:15:42.791,-0.0311, 0.9836, 0.0500,-0.0200, 0.1395, 0.0167,-2.6369,-1.4743, 1.7798
09-Sep-2020 11:15:42.801,-0.0442, 0.9815, 0.0424, 0.0017, 0.1641, 0.0148,-2.6385,-1.4743, 1.7768
09-Sep-2020 11:15:42.811,-0.0566, 0.9811, 0.0443, 0.0153, 0.1921, 0.0082,-2.6387,-1.4745, 1.7750
09-Sep-2020 11:15:42.821,-0.0648, 0.9862, 0.0525, 0.0199, 0.2051, 0.0024,-2.6375,-1.4748, 1.7743
09-Sep-2020 11:15:42.831,-0.0729, 0.9936, 0.0598, 0.0194, 0.1875,-0.0050,-2.6353,-1.4751, 1.7744
09-Sep-2020 11:15:42.841,-0.0804, 0.9946, 0.0651, 0.0149, 0.1452,-0.0097,-2.6327,-1.4753, 1.7752
09-Sep-2020 11:15:42.851,-0.0860, 0.9959, 0.0653, 0.0074, 0.0844,-0.0120,-2.6303,-1.4755, 1.7762
09-Sep-2020 11:15:42.861,-0.0882, 0.9953, 0.0641,-0.0071, 0.0206,-0.0166,-2.6287,-1.4756, 1.7770
09-Sep-2020 11:15:42.871,-0.0873, 0.9955, 0.0628,-0.0194,-0.0176,-0.0212,-2.6278,-1.4756, 1.7777
09-Sep-2020 11:15:42.881,-0.0826, 0.9928, 0.0617,-0.0383, 0.0149,-0.0203,-2.6274,-1.4755, 1.7783
09-Sep-2020 11:15:42.891,-0.0809, 0.9907, 0.0580,-0.0578, 0.1364,-0.0117,-2.6274,-1.4752, 1.7781
09-Sep-2020 11:15:42.901,-0.0963, 0.9864, 0.0646,-0.0961, 0.4951,-0.0197,-2.6279,-1.4747, 1.7758
09-Sep-2020 11:15:42.911,-0.1032, 0.9769, 0.0091, 0.0404, 0.4963,-0.0249,-2.6257,-1.4740, 1.7734
09-Sep-2020 11:15:42.921,-0.0861, 0.9893,-0.0318, 0.1191, 0.3896,-0.0216,-2.6167,-1.4743, 1.7776
09-Sep-2020 11:15:42.930,-0.0835, 1.0001, 0.0140, 0.1355, 0.2403,-0.0180,-2.6046,-1.4752, 1.7859
09-Sep-2020 11:15:42.940,-0.0785, 1.0102, 0.0699, 0.0939, 0.0996,-0.0170,-2.5930,-1.4763, 1.7951
09-Sep-2020 11:15:42.950,-0.0735, 1.0134, 0.1136, 0.0204,-0.0451,-0.0246,-2.5849,-1.4771, 1.8022
09-Sep-2020 11:15:42.960,-0.0685, 1.0102, 0.1226,-0.0456,-0.1953,-0.0307,-2.5816,-1.4772, 1.8060
09-Sep-2020 11:15:42.970,-0.0661, 1.0018, 0.0964,-0.0803,-0.3114,-0.0299,-2.5830,-1.4767, 1.8065
09-Sep-2020 11:15:42.980,-0.0659, 0.9966, 0.0659,-0.0809,-0.3672,-0.0189,-2.5876,-1.4760, 1.8050
09-Sep-2020 11:15:42.990,-0.0616, 0.9949, 0.0456,-0.0615,-0.3712,-0.0083,-2.5936,-1.4753, 1.8026
09-Sep-2020 11:15:43.000,-0.0535, 0.9976, 0.0356,-0.0432,-0.3441,-0.0076,-2.5987,-1.4748, 1.8012
09-Sep-2020 11:15:43.010,-0.0424, 0.9988, 0.0317,-0.0215,-0.3145,-0.0103,-2.5996,-1.4749, 1.8037
09-Sep-2020 11:15:43.020,-0.0336, 0.9948, 0.0335,-0.0026,-0.2794,-0.0107,-2.6023,-1.4748, 1.8042
09-Sep-2020 11:15:43.030,-0.0324, 0.9913, 0.0424, 0.0110,-0.2615,-0.0090,-2.6041,-1.4748, 1.8051
09-Sep-2020 11:15:43.040,-0.0373, 0.9922, 0.0543, 0.0025,-0.2294,-0.0058,-2.6059,-1.4748, 1.8060
09-Sep-2020 11:15:43.050,-0.0460, 0.9949, 0.0683,-0.0150,-0.2109,-0.0045,-2.6080,-1.4749, 1.8061
09-Sep-2020 11:15:43.060,-0.0565, 0.9975, 0.0720,-0.0372,-0.1991,-0.0116,-2.6109,-1.4748, 1.8054
09-Sep-2020 11:15:43.069,-0.0595, 1.0003, 0.0722,-0.0449,-0.1929,-0.0161,-2.6142,-1.4745, 1.8040
09-Sep-2020 11:15:43.080,-0.0563, 1.0020, 0.0642,-0.0384,-0.1947,-0.0189,-2.6174,-1.4741, 1.8027
09-Sep-2020 11:15:43.090,-0.0575, 1.0018, 0.0623,-0.0281,-0.1917,-0.0239,-2.6196,-1.4738, 1.8025
09-Sep-2020 11:15:43.099,-0.0600, 1.0006, 0.0671,-0.0196,-0.1918,-0.0284,-2.6210,-1.4736, 1.8030
09-Sep-2020 11:15:43.109,-0.0611, 0.9966, 0.0650,-0.0214,-0.2283,-0.0352,-2.6216,-1.4735, 1.8044
09-Sep-2020 11:15:43.119,-0.0597, 0.9910, 0.0629,-0.0376,-0.2580,-0.0379,-2.6221,-1.4733, 1.8062
09-Sep-2020 11:15:43.129,-0.0579, 0.9841, 0.0624,-0.0540,-0.2610,-0.0378,-2.6234,-1.4729, 1.8074
09-Sep-2020 11:15:43.139,-0.0508, 0.9796, 0.0592,-0.0525,-0.2294,-0.0384,-2.6257,-1.4723, 1.8077
09-Sep-2020 11:15:43.149,-0.0418, 0.9773, 0.0582,-0.0347,-0.1554,-0.0376,-2.6274,-1.4718, 1.8083
09-Sep-2020 11:15:43.159,-0.0315, 0.9809, 0.0572,-0.0140,-0.0773,-0.0396,-2.6275,-1.4714, 1.8097
09-Sep-2020 11:15:43.169,-0.0197, 0.9841, 0.0517,-0.0003,-0.0194,-0.0322,-2.6257,-1.4712, 1.8123
09-Sep-2020 11:15:43.179,-0.0113, 0.9869, 0.0521, 0.0084, 0.0303,-0.0122,-2.6234,-1.4711, 1.8149
09-Sep-2020 11:15:43.189,-0.0160, 0.9932, 0.0627, 0.0273, 0.0674, 0.0049,-2.6217,-1.4713, 1.8163
09-Sep-2020 11:15:43.199,-0.0309, 1.0002, 0.0751, 0.0391, 0.0763, 0.0071,-2.6199,-1.4716, 1.8174
09-Sep-2020 11:15:43.209,-0.0434, 1.0017, 0.0824, 0.0258, 0.0299, 0.0032,-2.6178,-1.4720, 1.8188
09-Sep-2020 11:15:43.219,-0.0493, 0.9991, 0.0798,-0.0057,-0.0497, 0.0099,-2.6168,-1.4724, 1.8196
09-Sep-2020 11:15:43.229,-0.0518, 0.9933, 0.0772,-0.0230,-0.0891, 0.0117,-2.6184,-1.4725, 1.8184
09-Sep-2020 11:15:43.239,-0.0528, 0.9892, 0.0761,-0.0212,-0.0782, 0.0148,-2.6217,-1.4725, 1.8160
09-Sep-2020 11:15:43.249,-0.0506, 0.9886, 0.0732,-0.0075,-0.0344, 0.0155,-2.6251,-1.4725, 1.8133
09-Sep-2020 11:15:43.259,-0.0440, 0.9875, 0.0674, 0.0069, 0.0228, 0.0166,-2.6277,-1.4727, 1.8111
09-Sep-2020 11:15:43.269,-0.0406, 0.9866, 0.0653, 0.0183, 0.0699, 0.0148,-2.6292,-1.4729, 1.8093
09-Sep-2020 11:15:43.279,-0.0429, 0.9926, 0.0635, 0.0225, 0.0909, 0.0152,-2.6297,-1.4733, 1.8081
09-Sep-2020 11:15:43.289,-0.0513, 0.9955, 0.0629, 0.0298, 0.0804, 0.0067,-2.6296,-1.4737, 1.8074
09-Sep-2020 11:15:43.299,-0.0586, 0.9925, 0.0616, 0.0273, 0.0510, 0.0023,-2.6285,-1.4740, 1.8077
09-Sep-2020 11:15:43.309,-0.0622, 0.9877, 0.0608, 0.0168, 0.0108,-0.0013,-2.6273,-1.4743, 1.8084
09-Sep-2020 11:15:43.318,-0.0614, 0.9819, 0.0613, 0.0156,-0.0132,-0.0071,-2.6264,-1.4746, 1.8092
09-Sep-2020 11:15:43.328,-0.0579, 0.9799, 0.0608, 0.0222,-0.0144,-0.0122,-2.6254,-1.4748, 1.8103
09-Sep-2020 11:15:43.338,-0.0520, 0.9825, 0.0590, 0.0340, 0.0028,-0.0151,-2.6237,-1.4750, 1.8122
09-Sep-2020 11:15:43.348,-0.0477, 0.9865, 0.0581, 0.0471, 0.0256,-0.0165,-2.6208,-1.4753, 1.8150
09-Sep-2020 11:15:43.358,-0.0444, 0.9910, 0.0593, 0.0501, 0.0413,-0.0185,-2.6170,-1.4757, 1.8187
09-Sep-2020 11:15:43.368,-0.0432, 0.9960, 0.0592, 0.0557, 0.0481,-0.0181,-2.6125,-1.4762, 1.8228
09-Sep-2020 11:15:43.378,-0.0463, 0.9985, 0.0568, 0.0595, 0.0550,-0.0232,-2.6074,-1.4766, 1.8274
09-Sep-2020 11:15:43.388,-0.0492, 0.9973, 0.0523, 0.0664, 0.0602,-0.0182,-2.6018,-1.4771, 1.8326
09-Sep-2020 11:15:43.398,-0.0546, 0.9937, 0.0502, 0.0704, 0.0644,-0.0203,-2.5960,-1.4777, 1.8378
09-Sep-2020 11:15:43.408,-0.0607, 0.9898, 0.0531, 0.0718, 0.0665,-0.0243,-2.5897,-1.4783, 1.8434
09-Sep-2020 11:15:43.418,-0.0679, 0.9882, 0.0554, 0.0730, 0.0691,-0.0305,-2.5829,-1.4788, 1.8496
09-Sep-2020 11:15:43.428,-0.0716, 0.9867, 0.0549, 0.0760, 0.0599,-0.0375,-2.5754,-1.4794, 1.8564
09-Sep-2020 11:15:43.438,-0.0745, 0.9876, 0.0509, 0.0739, 0.0492,-0.0425,-2.5670,-1.4799, 1.8642
09-Sep-2020 11:15:43.448,-0.0793, 0.9880, 0.0450, 0.0725, 0.0395,-0.0505,-2.5584,-1.4804, 1.8724
09-Sep-2020 11:15:43.458,-0.0851, 0.9869, 0.0412, 0.0727, 0.0250,-0.0618,-2.5493,-1.4808, 1.8812
09-Sep-2020 11:15:43.468,-0.0915, 0.9860, 0.0381, 0.0793, 0.0198,-0.0729,-2.5392,-1.4812, 1.8911
09-Sep-2020 11:15:43.478,-0.0962, 0.9848, 0.0395, 0.0863, 0.0183,-0.0794,-2.5277,-1.4815, 1.9025
09-Sep-2020 11:15:43.488,-0.0985, 0.9835, 0.0439, 0.0916, 0.0134,-0.0893,-2.5148,-1.4819, 1.9153
09-Sep-2020 11:15:43.498,-0.0969, 0.9860, 0.0496, 0.0835,-0.0028,-0.0981,-2.5008,-1.4822, 1.9292
09-Sep-2020 11:15:43.508,-0.0911, 0.9935, 0.0527, 0.0780,-0.0158,-0.1026,-2.4863,-1.4824, 1.9437
09-Sep-2020 11:15:43.517,-0.0809, 1.0000, 0.0547, 0.0765,-0.0394,-0.0964,-2.4719,-1.4824, 1.9584
09-Sep-2020 11:15:43.527,-0.0682, 1.0058, 0.0529, 0.0746,-0.0581,-0.0869,-2.4583,-1.4825, 1.9724
09-Sep-2020 11:15:43.538,-0.0544, 1.0079, 0.0522, 0.0646,-0.0767,-0.0706,-2.4458,-1.4826, 1.9856
09-Sep-2020 11:15:43.547,-0.0379, 1.0102, 0.0547, 0.0568,-0.0782,-0.0540,-2.4353,-1.4827, 1.9969
09-Sep-2020 11:15:43.557,-0.0216, 1.0109, 0.0612, 0.0473,-0.0544,-0.0330,-2.4268,-1.4829, 2.0061
09-Sep-2020 11:15:43.567,-0.0098, 1.0076, 0.0716, 0.0376,-0.0245,-0.0134,-2.4205,-1.4831, 2.0131
09-Sep-2020 11:15:43.577,-0.0043, 1.0051, 0.0782, 0.0254, 0.0014, 0.0064,-2.4163,-1.4834, 2.0175
09-Sep-2020 11:15:43.587,-0.0055, 1.0072, 0.0767, 0.0187, 0.0209, 0.0185,-2.4143,-1.4836, 2.0195
09-Sep-2020 11:15:43.597,-0.0122, 1.0072, 0.0728, 0.0192, 0.0221, 0.0284,-2.4138,-1.4840, 2.0198
09-Sep-2020 11:15:43.607,-0.0230, 1.0047, 0.0701, 0.0186, 0.0206, 0.0341,-2.4144,-1.4844, 2.0190
09-Sep-2020 11:15:43.617,-0.0316, 0.9962, 0.0660, 0.0112, 0.0082, 0.0326,-2.4157,-1.4848, 2.0175
09-Sep-2020 11:15:43.627,-0.0386, 0.9894, 0.0604, 0.0040, 0.0014, 0.0299,-2.4177,-1.4852, 2.0154
09-Sep-2020 11:15:43.637,-0.0446, 0.9869, 0.0555, 0.0063, 0.0115, 0.0254,-2.4203,-1.4856, 2.0128
09-Sep-2020 11:15:43.647,-0.0482, 0.9886, 0.0557, 0.0179, 0.0430, 0.0176,-2.4225,-1.4859, 2.0104
09-Sep-2020 11:15:43.657,-0.0459, 0.9911, 0.0585, 0.0229, 0.0821, 0.0174,-2.4233,-1.4863, 2.0092
09-Sep-2020 11:15:43.667,-0.0432, 0.9939, 0.0613, 0.0285, 0.1149, 0.0213,-2.4234,-1.4867, 2.0083
09-Sep-2020 11:15:43.677,-0.0441, 0.9951, 0.0627, 0.0339, 0.1267, 0.0213,-2.4231,-1.4871, 2.0075
09-Sep-2020 11:15:43.687,-0.0443, 0.9941, 0.0622, 0.0351, 0.1286, 0.0138,-2.4222,-1.4876, 2.0072
09-Sep-2020 11:15:43.697,-0.0432, 0.9920, 0.0581, 0.0437, 0.1204, 0.0169,-2.4204,-1.4881, 2.0077
09-Sep-2020 11:15:43.706,-0.0428, 0.9910, 0.0502, 0.0509, 0.1206, 0.0144,-2.4180,-1.4886, 2.0090
09-Sep-2020 11:15:43.717,-0.0457, 0.9917, 0.0397, 0.0632, 0.1264, 0.0107,-2.4144,-1.4892, 2.0114
09-Sep-2020 11:15:43.726,-0.0489, 0.9880, 0.0268, 0.0784, 0.1395, 0.0124,-2.4093,-1.4898, 2.0153
09-Sep-2020 11:15:43.736,-0.0527, 0.9837, 0.0199, 0.0820, 0.1657, 0.0176,-2.4031,-1.4906, 2.0200
09-Sep-2020 11:15:43.746,-0.0649, 0.9789, 0.0181, 0.0919, 0.2032, 0.0111,-2.3966,-1.4914, 2.0249
09-Sep-2020 11:15:43.756,-0.0799, 0.9795, 0.0189, 0.1071, 0.2325, 0.0025,-2.3881,-1.4922, 2.0314
09-Sep-2020 11:15:43.766,-0.0914, 0.9839, 0.0257, 0.1247, 0.2562, 0.0011,-2.3772,-1.4931, 2.0400
09-Sep-2020 11:15:43.776,-0.1006, 0.9919, 0.0381, 0.1275, 0.2596, 0.0004,-2.3643,-1.4941, 2.0504
09-Sep-2020 11:15:43.786,-0.1033, 1.0005, 0.0461, 0.1224, 0.2242,-0.0026,-2.3506,-1.4950, 2.0616
09-Sep-2020 11:15:43.796,-0.0977, 1.0065, 0.0522, 0.1066, 0.1466,-0.0050,-2.3371,-1.4960, 2.0730
09-Sep-2020 11:15:43.806,-0.0860, 1.0105, 0.0554, 0.0814, 0.0456, 0.0006,-2.3253,-1.4968, 2.0833
09-Sep-2020 11:15:43.816,-0.0754, 1.0098, 0.0549, 0.0555,-0.0323, 0.0053,-2.3169,-1.4974, 2.0914
09-Sep-2020 11:15:43.826,-0.0689, 1.0065, 0.0513, 0.0400,-0.0686, 0.0072,-2.3117,-1.4980, 2.0969
09-Sep-2020 11:15:43.836,-0.0600, 1.0032, 0.0450, 0.0319,-0.0737, 0.0113,-2.3084,-1.4984, 2.1008
09-Sep-2020 11:15:43.846,-0.0487, 1.0009, 0.0364, 0.0245,-0.0646, 0.0166,-2.3062,-1.4988, 2.1038
09-Sep-2020 11:15:43.856,-0.0367, 0.9966, 0.0299, 0.0267,-0.0378, 0.0200,-2.3049,-1.4991, 2.1057
09-Sep-2020 11:15:43.866,-0.0270, 0.9908, 0.0267, 0.0356,-0.0071, 0.0282,-2.3037,-1.4995, 2.1073
09-Sep-2020 11:15:43.876,-0.0199, 0.9883, 0.0272, 0.0459, 0.0332, 0.0347,-2.3021,-1.5000, 2.1090
09-Sep-2020 11:15:43.886,-0.0160, 1.0048, 0.0305, 0.0459, 0.0332, 0.0347,-2.3000,-1.5005, 2.1108
09-Sep-2020 11:15:43.896,-0.0161, 1.0171, 0.0299, 0.0502, 0.1065, 0.0431,-2.2980,-1.5012, 2.1120
09-Sep-2020 11:15:43.906,-0.0204, 1.0200, 0.0193, 0.0564, 0.1160, 0.0480,-2.2957,-1.5019, 2.1133
09-Sep-2020 11:15:43.916,-0.0246, 1.0187, 0.0069, 0.0613, 0.1048, 0.0542,-2.2931,-1.5027, 2.1148
09-Sep-2020 11:15:43.925,-0.0268, 1.0085,-0.0032, 0.0596, 0.0835, 0.0667,-2.2908,-1.5036, 2.1161
09-Sep-2020 11:15:43.935,-0.0328, 0.9939,-0.0071, 0.0589, 0.0641, 0.0755,-2.2899,-1.5046, 2.1162
09-Sep-2020 11:15:43.945,-0.0469, 0.9743,-0.0057, 0.0719, 0.0701, 0.0887,-2.2900,-1.5056, 2.1154
09-Sep-2020 11:15:43.955,-0.0654, 0.9542,-0.0008, 0.0882, 0.0896, 0.0895,-2.2900,-1.5069, 2.1148
09-Sep-2020 11:15:43.965,-0.0854, 0.9488, 0.0038, 0.1056, 0.1044, 0.0778,-2.2881,-1.5083, 2.1158
09-Sep-2020 11:15:43.975,-0.1020, 0.9616, 0.0031, 0.1190, 0.1075, 0.0653,-2.2830,-1.5097, 2.1199
09-Sep-2020 11:15:43.985,-0.1147, 0.9812, 0.0017, 0.1237, 0.0953, 0.0537,-2.2748,-1.5110, 2.1271
09-Sep-2020 11:15:43.995,-0.1219, 0.9981, 0.0109, 0.1169, 0.0734, 0.0344,-2.2641,-1.5124, 2.1368
09-Sep-2020 11:15:44.005,-0.1171, 1.0081, 0.0231, 0.1008, 0.0351, 0.0206,-2.2517,-1.5135, 2.1485
09-Sep-2020 11:15:44.015,-0.0944, 1.0063, 0.0327, 0.0745,-0.0214, 0.0146,-2.2396,-1.5144, 2.1603
09-Sep-2020 11:15:44.025,-0.0715, 0.9995, 0.0397, 0.0483,-0.0758, 0.0110,-2.2303,-1.5151, 2.1699
09-Sep-2020 11:15:44.035,-0.0554, 0.9942, 0.0413, 0.0347,-0.1153, 0.0105,-2.2242,-1.5157, 2.1767
09-Sep-2020 11:15:44.045,-0.0457, 0.9920, 0.0331, 0.0247,-0.1409, 0.0129,-2.2205,-1.5160, 2.1816
09-Sep-2020 11:15:44.055,-0.0396, 0.9932, 0.0210, 0.0258,-0.1434, 0.0166,-2.2181,-1.5163, 2.1854
09-Sep-2020 11:15:44.065,-0.0352, 0.9989, 0.0089, 0.0327,-0.1320, 0.0134,-2.2156,-1.5167, 2.1893
09-Sep-2020 11:15:44.075,-0.0303, 1.0015,-0.0039, 0.0441,-0.1204, 0.0145,-2.2116,-1.5170, 2.1946
09-Sep-2020 11:15:44.085,-0.0254, 0.9962,-0.0128, 0.0573,-0.0887, 0.0081,-2.2061,-1.5173, 2.2014
09-Sep-2020 11:15:44.095,-0.0221, 0.9854,-0.0158, 0.0736,-0.0450, 0.0117,-2.1980,-1.5177, 2.2103
09-Sep-2020 11:15:44.105,-0.0209, 0.9783,-0.0148, 0.0955, 0.0199, 0.0178,-2.1876,-1.5183, 2.2212
09-Sep-2020 11:15:44.115,-0.0242, 0.9728,-0.0112, 0.1230, 0.0824, 0.0215,-2.1740,-1.5190, 2.2346
09-Sep-2020 11:15:44.125,-0.0328, 0.9720,-0.0099, 0.1408, 0.1268, 0.0270,-2.1561,-1.5199, 2.2517
09-Sep-2020 11:15:44.135,-0.0424, 0.9784,-0.0037, 0.1499, 0.1427, 0.0186,-2.1345,-1.5210, 2.2721
09-Sep-2020 11:15:44.145,-0.0530, 0.9778, 0.0048, 0.1405, 0.1294, 0.0081,-2.1096,-1.5220, 2.2957
09-Sep-2020 11:15:44.155,-0.0612, 0.9783, 0.0118, 0.1338, 0.0985, 0.0012,-2.0837,-1.5229, 2.3203
09-Sep-2020 11:15:44.165,-0.0652, 0.9933, 0.0153, 0.1250, 0.0625,-0.0051,-2.0577,-1.5237, 2.3454
09-Sep-2020 11:15:44.175,-0.0646, 1.0040, 0.0148, 0.1140, 0.0388,-0.0095,-2.0319,-1.5243, 2.3706
09-Sep-2020 11:15:44.184,-0.0607, 1.0051, 0.0112, 0.0943, 0.0239,-0.0120,-2.0075,-1.5248, 2.3947
09-Sep-2020 11:15:44.194,-0.0551, 1.0006, 0.0018, 0.0732, 0.0103, 0.0006,-1.9864,-1.5253, 2.4155
09-Sep-2020 11:15:44.204,-0.0551, 0.9949,-0.0121, 0.0732, 0.0103, 0.0006,-1.9705,-1.5257, 2.4313
09-Sep-2020 11:15:44.214,-0.0676, 0.9891,-0.0260, 0.0735, 0.0031, 0.0042,-1.9569,-1.5261, 2.4449
09-Sep-2020 11:15:44.224,-0.0836, 0.9822,-0.0388, 0.0891,-0.0058,-0.0016,-1.9409,-1.5265, 2.4609
09-Sep-2020 11:15:44.236,-0.0987, 0.9748,-0.0478, 0.1053,-0.0125, 0.0044,-1.9213,-1.5268, 2.4807
09-Sep-2020 11:15:44.244,-0.1158, 0.9778,-0.0471, 0.1232,-0.0202,-0.0008,-1.8983,-1.5273, 2.5038
09-Sep-2020 11:15:44.254,-0.1323, 0.9919,-0.0388, 0.1283,-0.0365,-0.0083,-1.8712,-1.5277, 2.5311
09-Sep-2020 11:15:44.264,-0.1356, 1.0101,-0.0228, 0.1235,-0.0662,-0.0221,-1.8420,-1.5280, 2.5607
09-Sep-2020 11:15:44.274,-0.1262, 1.0237,-0.0039, 0.1021,-0.1265,-0.0258,-1.8133,-1.5282, 2.5901
09-Sep-2020 11:15:44.284,-0.1060, 1.0247, 0.0129, 0.0713,-0.2065,-0.0265,-1.7895,-1.5282, 2.6153
09-Sep-2020 11:15:44.294,-0.0837, 1.0195, 0.0223, 0.0406,-0.2862,-0.0271,-1.7725,-1.5282, 2.6343
09-Sep-2020 11:15:44.303,-0.0629, 1.0130, 0.0245, 0.0120,-0.3261,-0.0197,-1.7629,-1.5280, 2.6468
09-Sep-2020 11:15:44.314,-0.0482, 1.0067, 0.0246,-0.0003,-0.3178,-0.0089,-1.7598,-1.5279, 2.6530
09-Sep-2020 11:15:44.323,-0.0402, 1.0026, 0.0194,-0.0047,-0.2904,-0.0123,-1.7597,-1.5278, 2.6564
09-Sep-2020 11:15:44.334,-0.0359, 0.9992, 0.0101,-0.0086,-0.2570,-0.0167,-1.7600,-1.5276, 2.6589
09-Sep-2020 11:15:44.344,-0.0344, 0.9978,-0.0065,-0.0087,-0.2296,-0.0250,-1.7610,-1.5274, 2.6605
09-Sep-2020 11:15:44.353,-0.0347, 0.9987,-0.0244, 0.0047,-0.1965,-0.0297,-1.7618,-1.5271, 2.6620
09-Sep-2020 11:15:44.363,-0.0355, 0.9968,-0.0370, 0.0255,-0.1614,-0.0356,-1.7598,-1.5268, 2.6660
09-Sep-2020 11:15:44.373,-0.0393, 0.9892,-0.0441, 0.0427,-0.1341,-0.0441,-1.7536,-1.5265, 2.6738
09-Sep-2020 11:15:44.383,-0.0415, 0.9818,-0.0504, 0.0646,-0.1077,-0.0427,-1.7435,-1.5261, 2.6853
09-Sep-2020 11:15:44.393,-0.0410, 0.9815,-0.0476, 0.0899,-0.0867,-0.0386,-1.7286,-1.5259, 2.7013
09-Sep-2020 11:15:44.404,-0.0345, 0.9886,-0.0339, 0.0950,-0.0651,-0.0334,-1.7087,-1.5257, 2.7221
09-Sep-2020 11:15:44.413,-0.0208, 0.9945,-0.0144, 0.0884,-0.0564,-0.0248,-1.6874,-1.5256, 2.7441
09-Sep-2020 11:15:44.423,-0.0078, 0.9989,-0.0014, 0.0657,-0.0520,-0.0103,-1.6679,-1.5255, 2.7641
09-Sep-2020 11:15:44.433,-0.0005, 1.0027, 0.0046, 0.0558,-0.0525, 0.0025,-1.6523,-1.5256, 2.7803
09-Sep-2020 11:15:44.443,-0.0019, 1.0083, 0.0007, 0.0478,-0.0530, 0.0131,-1.6386,-1.5257, 2.7945
09-Sep-2020 11:15:44.453,-0.0073, 1.0106,-0.0061, 0.0396,-0.0498, 0.0166,-1.6264,-1.5260, 2.8072
09-Sep-2020 11:15:44.463,-0.0177, 1.0070,-0.0130, 0.0308,-0.0389, 0.0132,-1.6160,-1.5262, 2.8182
09-Sep-2020 11:15:44.473,-0.0268, 1.0000,-0.0171, 0.0279,-0.0212, 0.0070,-1.6068,-1.5265, 2.8278
09-Sep-2020 11:15:44.483,-0.0341, 0.9937,-0.0230, 0.0343, 0.0007,-0.0016,-1.5979,-1.5266, 2.8369
09-Sep-2020 11:15:44.493,-0.0350, 0.9895,-0.0287, 0.0401, 0.0109,-0.0106,-1.5881,-1.5267, 2.8467
09-Sep-2020 11:15:44.503,-0.0318, 0.9875,-0.0298, 0.0409, 0.0208,-0.0125,-1.5777,-1.5267, 2.8570
09-Sep-2020 11:15:44.513,-0.0264, 0.9903,-0.0294, 0.0403, 0.0254,-0.0116,-1.5673,-1.5267, 2.8672
09-Sep-2020 11:15:44.523,-0.0194, 0.9964,-0.0289, 0.0376, 0.0322,-0.0079,-1.5573,-1.5267, 2.8770
09-Sep-2020 11:15:44.533,-0.0123, 1.0001,-0.0264, 0.0360, 0.0366,-0.0031,-1.5477,-1.5268, 2.8863
09-Sep-2020 11:15:44.542,-0.0113, 1.0031,-0.0303, 0.0375, 0.0491, 0.0011,-1.5379,-1.5269, 2.8957
09-Sep-2020 11:15:44.552,-0.0173, 1.0032,-0.0398, 0.0382, 0.0613, 0.0024,-1.5276,-1.5270, 2.9056
09-Sep-2020 11:15:44.562,-0.0258, 0.9995,-0.0509, 0.0476, 0.0775, 0.0075,-1.5168,-1.5271, 2.9158
09-Sep-2020 11:15:44.572,-0.0400, 0.9943,-0.0583, 0.0656, 0.1044, 0.0104,-1.5033,-1.5272, 2.9285
09-Sep-2020 11:15:44.582,-0.0585, 0.9876,-0.0647, 0.0902, 0.1225, 0.0046,-1.4850,-1.5273, 2.9458
09-Sep-2020 11:15:44.592,-0.0756, 0.9864,-0.0675, 0.1093, 0.1380,-0.0050,-1.4611,-1.5273, 2.9685
09-Sep-2020 11:15:44.602,-0.0864, 0.9886,-0.0601, 0.1208, 0.1538,-0.0223,-1.4331,-1.5272, 2.9952
09-Sep-2020 11:15:44.612,-0.0894, 0.9902,-0.0446, 0.1120, 0.1580,-0.0292,-1.4034,-1.5269, 3.0234
09-Sep-2020 11:15:44.622,-0.0856, 0.9960,-0.0276, 0.0871, 0.1307,-0.0355,-1.3763,-1.5265, 3.0490
09-Sep-2020 11:15:44.632,-0.0782, 1.0036,-0.0150, 0.0582, 0.0749,-0.0390,-1.3553,-1.5261, 3.0688
09-Sep-2020 11:15:44.642,-0.0709, 1.0095,-0.0079, 0.0308,-0.0023,-0.0381,-1.3412,-1.5257, 3.0821
09-Sep-2020 11:15:44.652,-0.0624, 1.0133,-0.0065, 0.0038,-0.0751,-0.0343,-1.3338,-1.5254, 3.0895
09-Sep-2020 11:15:44.662,-0.0523, 1.0136,-0.0090,-0.0216,-0.1257,-0.0307,-1.3327,-1.5251, 3.0914
09-Sep-2020 11:15:44.672,-0.0411, 1.0105,-0.0155,-0.0341,-0.1469,-0.0299,-1.3370,-1.5248, 3.0883
09-Sep-2020 11:15:44.682,-0.0302, 1.0051,-0.0261,-0.0361,-0.1391,-0.0296,-1.3444,-1.5246, 3.0824
09-Sep-2020 11:15:44.692,-0.0221, 1.0021,-0.0366,-0.0386,-0.1187,-0.0262,-1.3526,-1.5244, 3.0755
09-Sep-2020 11:15:44.702,-0.0183, 0.9988,-0.0457,-0.0345,-0.0888,-0.0279,-1.3612,-1.5242, 3.0681
09-Sep-2020 11:15:44.712,-0.0218, 0.9936,-0.0536,-0.0213,-0.0525,-0.0297,-1.3688,-1.5240, 3.0614
09-Sep-2020 11:15:44.722,-0.0278, 0.9910,-0.0595,-0.0027,-0.0117,-0.0294,-1.3736,-1.5238, 3.0571
09-Sep-2020 11:15:44.732,-0.0337, 0.9894,-0.0652, 0.0234, 0.0189,-0.0326,-1.3743,-1.5235, 3.0566
09-Sep-2020 11:15:44.742,-0.0429, 0.9916,-0.0699, 0.0494, 0.0427,-0.0325,-1.3695,-1.5232, 3.0612
09-Sep-2020 11:15:44.752,-0.0471, 0.9930,-0.0721, 0.0740, 0.0526,-0.0339,-1.3591,-1.5228, 3.0712
09-Sep-2020 11:15:44.762,-0.0480, 0.9932,-0.0634, 0.0892, 0.0621,-0.0362,-1.3439,-1.5224, 3.0859
09-Sep-2020 11:15:44.771,-0.0461, 0.9932,-0.0499, 0.0946, 0.0697,-0.0349,-1.3256,-1.5219, 3.1036
09-Sep-2020 11:15:44.781,-0.0408, 0.9937,-0.0319, 0.0807, 0.0763,-0.0317,-1.3064,-1.5214, 3.1221
09-Sep-2020 11:15:44.791,-0.0366, 0.9974,-0.0160, 0.0636, 0.0666,-0.0276,-1.2894,-1.5210, 3.1384
09-Sep-2020 11:15:44.801,-0.0348, 1.0042,-0.0089, 0.0539, 0.0428,-0.0224,-1.2754,-1.5207,-3.1314
09-Sep-2020 11:15:44.811,-0.0347, 1.0113,-0.0079, 0.0435, 0.0107,-0.0123,-1.2635,-1.5203,-3.1199
09-Sep-2020 11:15:44.821,-0.0364, 1.0118,-0.0143, 0.0232,-0.0230,-0.0086,-1.2535,-1.5202,-3.1100
09-Sep-2020 11:15:44.831,-0.0442, 1.0035,-0.0191, 0.0050,-0.0415,-0.0061,-1.2472,-1.5200,-3.1034
09-Sep-2020 11:15:44.841,-0.0587, 0.9934,-0.0272, 0.0043,-0.0378,-0.0110,-1.2442,-1.5200,-3.1000
09-Sep-2020 11:15:44.851,-0.0737, 0.9872,-0.0384, 0.0141,-0.0299,-0.0130,-1.2420,-1.5199,-3.0975
09-Sep-2020 11:15:44.861,-0.0839, 0.9838,-0.0449, 0.0266,-0.0250,-0.0222,-1.2385,-1.5198,-3.0937
09-Sep-2020 11:15:44.871,-0.0917, 0.9808,-0.0496, 0.0352,-0.0329,-0.0309,-1.2339,-1.5195,-3.0887
09-Sep-2020 11:15:44.881,-0.0920, 0.9819,-0.0497, 0.0379,-0.0508,-0.0403,-1.2287,-1.5192,-3.0832
09-Sep-2020 11:15:44.891,-0.0865, 0.9862,-0.0450, 0.0409,-0.0755,-0.0422,-1.2238,-1.5188,-3.0777
09-Sep-2020 11:15:44.901,-0.0773, 0.9929,-0.0322, 0.0326,-0.0957,-0.0446,-1.2192,-1.5183,-3.0724
09-Sep-2020 11:15:44.911,-0.0687, 0.9990,-0.0204, 0.0169,-0.1186,-0.0430,-1.2161,-1.5178,-3.0683
09-Sep-2020 11:15:44.920,-0.0608, 1.0055,-0.0178,-0.0023,-0.1528,-0.0463,-1.2159,-1.5174,-3.0670
09-Sep-2020 11:15:44.931,-0.0546, 1.0087,-0.0238,-0.0111,-0.1800,-0.0453,-1.2193,-1.5170,-3.0688
09-Sep-2020 11:15:44.940,-0.0481, 1.0084,-0.0312,-0.0161,-0.1855,-0.0407,-1.2244,-1.5167,-3.0721
09-Sep-2020 11:15:44.951,-0.0454, 1.0070,-0.0353,-0.0155,-0.1661,-0.0379,-1.2299,-1.5163,-3.0758
09-Sep-2020 11:15:44.960,-0.0467, 1.0001,-0.0403,-0.0165,-0.1349,-0.0333,-1.2350,-1.5160,-3.0793
09-Sep-2020 11:15:44.970,-0.0504, 0.9918,-0.0471,-0.0113,-0.1014,-0.0249,-1.2394,-1.5158,-3.0823
09-Sep-2020 11:15:44.981,-0.0563, 0.9874,-0.0559, 0.0159,-0.0765,-0.0156,-1.2420,-1.5156,-3.0838
09-Sep-2020 11:15:44.991,-0.0627, 0.9869,-0.0588, 0.0447,-0.0543,-0.0089,-1.2398,-1.5154,-3.0809
09-Sep-2020 11:15:45.001,-0.0668, 0.9930,-0.0590, 0.0702,-0.0447,-0.0046,-1.2323,-1.5152,-3.0728
09-Sep-2020 11:15:45.011,-0.0692, 1.0009,-0.0543, 0.0823,-0.0459,-0.0018,-1.2203,-1.5149,-3.0603
09-Sep-2020 11:15:45.020,-0.0687, 1.0026,-0.0461, 0.0784,-0.0541,-0.0081,-1.2060,-1.5147,-3.0455
09-Sep-2020 11:15:45.030,-0.0694, 0.9998,-0.0373, 0.0641,-0.0706,-0.0140,-1.1925,-1.5143,-3.0315
09-Sep-2020 11:15:45.040,-0.0708, 0.9945,-0.0291, 0.0449,-0.0956,-0.0226,-1.1822,-1.5140,-3.0204
09-Sep-2020 11:15:45.050,-0.0697, 0.9927,-0.0243, 0.0233,-0.1269,-0.0279,-1.1758,-1.5137,-3.0131
09-Sep-2020 11:15:45.060,-0.0673, 0.9947,-0.0252, 0.0061,-0.1694,-0.0304,-1.1734,-1.5134,-3.0093
09-Sep-2020 11:15:45.070,-0.0614, 0.9933,-0.0319,-0.0099,-0.2038,-0.0356,-1.1743,-1.5131,-3.0086
09-Sep-2020 11:15:45.080,-0.0531, 0.9899,-0.0351,-0.0201,-0.2186,-0.0351,-1.1783,-1.5128,-3.0106
09-Sep-2020 11:15:45.090,-0.0480, 0.9915,-0.0372,-0.0247,-0.2011,-0.0308,-1.1841,-1.5126,-3.0142
09-Sep-2020 11:15:45.100,-0.0442, 0.9942,-0.0416,-0.0205,-0.1726,-0.0291,-1.1901,-1.5124,-3.0182
09-Sep-2020 11:15:45.110,-0.0423, 0.9957,-0.0477,-0.0055,-0.1435,-0.0241,-1.1952,-1.5122,-3.0216
09-Sep-2020 11:15:45.120,-0.0418, 0.9955,-0.0510, 0.0057,-0.1204,-0.0193,-1.1978,-1.5121,-3.0227
09-Sep-2020 11:15:45.130,-0.0413, 0.9949,-0.0531, 0.0181,-0.1000,-0.0121,-1.1980,-1.5119,-3.0218
09-Sep-2020 11:15:45.140,-0.0435, 0.9930,-0.0515, 0.0288,-0.0836,-0.0111,-1.1961,-1.5117,-3.0188
09-Sep-2020 11:15:45.150,-0.0480, 0.9910,-0.0480, 0.0383,-0.0652,-0.0131,-1.1921,-1.5115,-3.0140
09-Sep-2020 11:15:45.160,-0.0505, 0.9887,-0.0422, 0.0430,-0.0509,-0.0108,-1.1865,-1.5113,-3.0077
09-Sep-2020 11:15:45.169,-0.0521, 0.9910,-0.0383, 0.0418,-0.0477,-0.0145,-1.1798,-1.5111,-3.0005
09-Sep-2020 11:15:45.179,-0.0572, 0.9949,-0.0384, 0.0383,-0.0524,-0.0171,-1.1733,-1.5109,-2.9935
09-Sep-2020 11:15:45.189,-0.0622, 0.9975,-0.0392, 0.0241,-0.0668,-0.0259,-1.1677,-1.5106,-2.9873
09-Sep-2020 11:15:45.199,-0.0649, 0.9953,-0.0427, 0.0061,-0.0843,-0.0273,-1.1647,-1.5103,-2.9837
09-Sep-2020 11:15:45.209,-0.0688, 0.9896,-0.0473, 0.0020,-0.0944,-0.0291,-1.1644,-1.5101,-2.9826
09-Sep-2020 11:15:45.219,-0.0693, 0.9875,-0.0503, 0.0110,-0.0970,-0.0307,-1.1649,-1.5099,-2.9821
09-Sep-2020 11:15:45.229,-0.0664, 0.9872,-0.0476, 0.0182,-0.0842,-0.0301,-1.1645,-1.5096,-2.9807
09-Sep-2020 11:15:45.239,-0.0562, 0.9898,-0.0412, 0.0178,-0.0810,-0.0335,-1.1629,-1.5093,-2.9783
09-Sep-2020 11:15:45.249,-0.0463, 0.9926,-0.0349, 0.0113,-0.0740,-0.0283,-1.1615,-1.5090,-2.9761
09-Sep-2020 11:15:45.259,-0.0400, 0.9951,-0.0308, 0.0001,-0.0698,-0.0265,-1.1610,-1.5087,-2.9748
09-Sep-2020 11:15:45.269,-0.0401, 1.0008,-0.0334,-0.0069,-0.0653,-0.0243,-1.1620,-1.5085,-2.9751
09-Sep-2020 11:15:45.279,-0.0463, 1.0048,-0.0419,-0.0032,-0.0520,-0.0253,-1.1637,-1.5083,-2.9762
09-Sep-2020 11:15:45.289,-0.0549, 1.0033,-0.0493, 0.0018,-0.0369,-0.0314,-1.1650,-1.5081,-2.9769
09-Sep-2020 11:15:45.299,-0.0616, 0.9960,-0.0551, 0.0086,-0.0143,-0.0333,-1.1655,-1.5079,-2.9770
09-Sep-2020 11:15:45.309,-0.0667, 0.9890,-0.0584, 0.0174,-0.0088,-0.0387,-1.1649,-1.5075,-2.9762
09-Sep-2020 11:15:45.319,-0.0669, 0.9856,-0.0577, 0.0263, 0.0033,-0.0376,-1.1634,-1.5071,-2.9747
09-Sep-2020 11:15:45.329,-0.0678, 0.9843,-0.0542, 0.0315, 0.0155,-0.0296,-1.1606,-1.5068,-2.9719
09-Sep-2020 11:15:45.339,-0.0656, 0.9891,-0.0471, 0.0311, 0.0187,-0.0257,-1.1566,-1.5064,-2.9680
09-Sep-2020 11:15:45.349,-0.0635, 0.9933,-0.0408, 0.0219, 0.0010,-0.0233,-1.1523,-1.5061,-2.9639
09-Sep-2020 11:15:45.359,-0.0622, 0.9984,-0.0374, 0.0037,-0.0323,-0.0251,-1.1494,-1.5059,-2.9610
09-Sep-2020 11:15:45.369,-0.0600, 1.0001,-0.0369,-0.0090,-0.0564,-0.0247,-1.1493,-1.5057,-2.9605
09-Sep-2020 11:15:45.378,-0.0621, 0.9991,-0.0378,-0.0113,-0.0552,-0.0260,-1.1510,-1.5056,-2.9617
09-Sep-2020 11:15:45.388,-0.0617, 0.9949,-0.0410,-0.0141,-0.0444,-0.0257,-1.1532,-1.5054,-2.9634
09-Sep-2020 11:15:45.398,-0.0587, 0.9957,-0.0465,-0.0132,-0.0335,-0.0271,-1.1556,-1.5053,-2.9653
09-Sep-2020 11:15:45.408,-0.0559, 0.9948,-0.0513,-0.0106,-0.0270,-0.0274,-1.1577,-1.5051,-2.9671
09-Sep-2020 11:15:45.418,-0.0552, 0.9932,-0.0563,-0.0047,-0.0159,-0.0268,-1.1596,-1.5049,-2.9687
09-Sep-2020 11:15:45.428,-0.0566, 0.9918,-0.0569, 0.0014,-0.0029,-0.0240,-1.1606,-1.5047,-2.9696
09-Sep-2020 11:15:45.438,-0.0557, 0.9917,-0.0542, 0.0021, 0.0163,-0.0271,-1.1607,-1.5045,-2.9696
09-Sep-2020 11:15:45.448,-0.0555, 0.9901,-0.0498, 0.0013, 0.0446,-0.0230,-1.1607,-1.5043,-2.9697
09-Sep-2020 11:15:45.458,-0.0560, 0.9907,-0.0468,-0.0037, 0.0600,-0.0232,-1.1604,-1.5041,-2.9699
09-Sep-2020 11:15:45.468,-0.0583, 0.9929,-0.0461,-0.0082, 0.0633,-0.0203,-1.1606,-1.5040,-2.9706
09-Sep-2020 11:15:45.478,-0.0613, 0.9961,-0.0481,-0.0094, 0.0588,-0.0235,-1.1610,-1.5038,-2.9716
09-Sep-2020 11:15:45.488,-0.0643, 0.9972,-0.0502,-0.0130, 0.0468,-0.0243,-1.1616,-1.5037,-2.9728
09-Sep-2020 11:15:45.498,-0.0650, 0.9972,-0.0504,-0.0145, 0.0335,-0.0275,-1.1629,-1.5036,-2.9745
09-Sep-2020 11:15:45.508,-0.0635, 0.9968,-0.0503,-0.0176, 0.0326,-0.0287,-1.1646,-1.5034,-2.9766
09-Sep-2020 11:15:45.518,-0.0621, 0.9951,-0.0499,-0.0217, 0.0330,-0.0301,-1.1667,-1.5033,-2.9791
09-Sep-2020 11:15:45.528,-0.0612, 0.9954,-0.0516,-0.0142, 0.0386,-0.0265,-1.1693,-1.5031,-2.9820
09-Sep-2020 11:15:45.538,-0.0609, 0.9954,-0.0556,-0.0092, 0.0440,-0.0241,-1.1708,-1.5030,-2.9839
09-Sep-2020 11:15:45.548,-0.0622, 0.9944,-0.0589,-0.0068, 0.0462,-0.0246,-1.1716,-1.5028,-2.9851
09-Sep-2020 11:15:45.558,-0.0656, 0.9930,-0.0562,-0.0077, 0.0690,-0.0201,-1.1720,-1.5027,-2.9860
09-Sep-2020 11:15:45.568,-0.0712, 0.9921,-0.0535, 0.0032, 0.0953,-0.0187,-1.1719,-1.5026,-2.9866
09-Sep-2020 11:15:45.578,-0.0777, 0.9929,-0.0523, 0.0097, 0.1074,-0.0223,-1.1703,-1.5024,-2.9859
09-Sep-2020 11:15:45.587,-0.0813, 0.9958,-0.0516, 0.0054, 0.0943,-0.0249,-1.1679,-1.5022,-2.9845
09-Sep-2020 11:15:45.598,-0.0825, 0.9959,-0.0497,-0.0031, 0.0770,-0.0214,-1.1662,-1.5020,-2.9837
09-Sep-2020 11:15:45.608,-0.0813, 0.9942,-0.0453,-0.0077, 0.0613,-0.0155,-1.1654,-1.5019,-2.9837
09-Sep-2020 11:15:45.617,-0.0792, 0.9945,-0.0375,-0.0119, 0.0394,-0.0161,-1.1652,-1.5018,-2.9841
09-Sep-2020 11:15:45.628,-0.0745, 0.9942,-0.0329,-0.0250, 0.0135,-0.0113,-1.1660,-1.5017,-2.9853
09-Sep-2020 11:15:45.638,-0.0686, 0.9940,-0.0336,-0.0400,-0.0137,-0.0167,-1.1684,-1.5018,-2.9878
09-Sep-2020 11:15:45.647,-0.0636, 0.9953,-0.0396,-0.0502,-0.0227,-0.0163,-1.1731,-1.5018,-2.9924
09-Sep-2020 11:15:45.658,-0.0649, 0.9951,-0.0458,-0.0430, 0.0018,-0.0136,-1.1793,-1.5018,-2.9984
09-Sep-2020 11:15:45.667,-0.0704, 0.9942,-0.0519,-0.0274, 0.0369,-0.0137,-1.1844,-1.5019,-3.0035
09-Sep-2020 11:15:45.677,-0.0755, 0.9927,-0.0574,-0.0164, 0.0603,-0.0193,-1.1871,-1.5019,-3.0066
09-Sep-2020 11:15:45.687,-0.0773, 0.9895,-0.0599,-0.0177, 0.0636,-0.0152,-1.1887,-1.5018,-3.0087
09-Sep-2020 11:15:45.697,-0.0766, 0.9889,-0.0560,-0.0155, 0.0637,-0.0182,-1.1901,-1.5017,-3.0108
09-Sep-2020 11:15:45.707,-0.0759, 0.9922,-0.0490,-0.0131, 0.0594,-0.0166,-1.1914,-1.5016,-3.0127
09-Sep-2020 11:15:45.717,-0.0730, 0.9969,-0.0405,-0.0177, 0.0517,-0.0156,-1.1925,-1.5016,-3.0144
09-Sep-2020 11:15:45.727,-0.0697, 0.9977,-0.0333,-0.0291, 0.0369,-0.0134,-1.1941,-1.5015,-3.0165
09-Sep-2020 11:15:45.737,-0.0689, 0.9967,-0.0312,-0.0410, 0.0192,-0.0177,-1.1972,-1.5015,-3.0200
09-Sep-2020 11:15:45.747,-0.0671, 0.9951,-0.0340,-0.0501, 0.0051,-0.0167,-1.2021,-1.5016,-3.0251
09-Sep-2020 11:15:45.757,-0.0662, 0.9951,-0.0412,-0.0535, 0.0040,-0.0204,-1.2083,-1.5016,-3.0313
09-Sep-2020 11:15:45.767,-0.0672, 0.9955,-0.0481,-0.0514, 0.0180,-0.0182,-1.2150,-1.5016,-3.0381
09-Sep-2020 11:15:45.777,-0.0699, 0.9953,-0.0537,-0.0389, 0.0415,-0.0177,-1.2212,-1.5017,-3.0445
09-Sep-2020 11:15:45.787,-0.0746, 0.9937,-0.0592,-0.0280, 0.0492,-0.0149,-1.2256,-1.5016,-3.0493
09-Sep-2020 11:15:45.797,-0.0795, 0.9933,-0.0612,-0.0220, 0.0497,-0.0145,-1.2283,-1.5016,-3.0525
09-Sep-2020 11:15:45.807,-0.0819, 0.9936,-0.0559,-0.0216, 0.0459,-0.0132,-1.2304,-1.5016,-3.0551
09-Sep-2020 11:15:45.817,-0.0824, 0.9923,-0.0472,-0.0269, 0.0367,-0.0135,-1.2327,-1.5016,-3.0577
09-Sep-2020 11:15:45.827,-0.0826, 0.9917,-0.0383,-0.0279, 0.0308,-0.0128,-1.2356,-1.5016,-3.0610
09-Sep-2020 11:15:45.837,-0.0792, 0.9922,-0.0314,-0.0354, 0.0104,-0.0145,-1.2388,-1.5016,-3.0646
09-Sep-2020 11:15:45.846,-0.0713, 0.9957,-0.0288,-0.0471,-0.0111,-0.0155,-1.2431,-1.5017,-3.0689
09-Sep-2020 11:15:45.857,-0.0654, 0.9991,-0.0320,-0.0619,-0.0236,-0.0144,-1.2490,-1.5017,-3.0747
09-Sep-2020 11:15:45.866,-0.0629, 1.0001,-0.0379,-0.0628,-0.0100,-0.0104,-1.2567,-1.5018,-3.0822
09-Sep-2020 11:15:45.876,-0.0647, 1.0035,-0.0444,-0.0524, 0.0234,-0.0057,-1.2641,-1.5019,-3.0896
09-Sep-2020 11:15:45.886,-0.0688, 1.0007,-0.0489,-0.0350, 0.0529,-0.0035,-1.2697,-1.5020,-3.0954
09-Sep-2020 11:15:45.897,-0.0748, 0.9941,-0.0548,-0.0250, 0.0655,-0.0063,-1.2728,-1.5021,-3.0990
09-Sep-2020 11:15:45.906,-0.0805, 0.9922,-0.0557,-0.0223, 0.0597,-0.0058,-1.2747,-1.5021,-3.1016
09-Sep-2020 11:15:45.916,-0.0827, 0.9917,-0.0482,-0.0184, 0.0521,-0.0019,-1.2765,-1.5022,-3.1039
09-Sep-2020 11:15:45.926,-0.0839, 0.9939,-0.0333,-0.0262, 0.0400,-0.0026,-1.2779,-1.5023,-3.1059
09-Sep-2020 11:15:45.936,-0.0820, 0.9944,-0.0209,-0.0392, 0.0188,-0.0026,-1.2803,-1.5024,-3.1086
09-Sep-2020 11:15:45.946,-0.0775, 0.9960,-0.0162,-0.0593,-0.0118,-0.0004,-1.2846,-1.5025,-3.1132
09-Sep-2020 11:15:45.956,-0.0756, 0.9961,-0.0176,-0.0700,-0.0409,-0.0027,-1.2917,-1.5027,-3.1201
09-Sep-2020 11:15:45.966,-0.0724, 0.9960,-0.0239,-0.0761,-0.0528,-0.0034,-1.3008,-1.5029,-3.1288
09-Sep-2020 11:15:45.976,-0.0680, 0.9977,-0.0329,-0.0730,-0.0476,-0.0057,-1.3107,-1.5031,-3.1382
09-Sep-2020 11:15:45.986,-0.0645, 0.9990,-0.0387,-0.0591,-0.0197,-0.0026,-1.3200,-1.5033, 3.1361
09-Sep-2020 11:15:45.996,-0.0626, 0.9975,-0.0409,-0.0506, 0.0116,-0.0030,-1.3274,-1.5034, 3.1289
09-Sep-2020 11:15:46.006,-0.0646, 0.9949,-0.0445,-0.0465, 0.0310, 0.0014,-1.3333,-1.5035, 3.1229
09-Sep-2020 11:15:46.015,-0.0681, 0.9915,-0.0438,-0.0410, 0.0394, 0.0088,-1.3385,-1.5037, 3.1173
09-Sep-2020 11:15:46.026,-0.0763, 0.9899,-0.0410,-0.0311, 0.0455, 0.0086,-1.3429,-1.5039, 3.1125
09-Sep-2020 11:15:46.035,-0.0842, 0.9918,-0.0333,-0.0350, 0.0293, 0.0015,-1.3460,-1.5041, 3.1090
09-Sep-2020 11:15:46.045,-0.0820, 0.9932,-0.0245,-0.0506,-0.0032, 0.0014,-1.3500,-1.5042, 3.1048
09-Sep-2020 11:15:46.055,-0.0775, 0.9934,-0.0187,-0.0646,-0.0368, 0.0022,-1.3563,-1.5044, 3.0985
09-Sep-2020 11:15:46.065,-0.0749, 0.9946,-0.0173,-0.0708,-0.0487, 0.0012,-1.3648,-1.5046, 3.0903
09-Sep-2020 11:15:46.075,-0.0717, 0.9975,-0.0225,-0.0768,-0.0509,-0.0026,-1.3745,-1.5048, 3.0810
09-Sep-2020 11:15:46.085,-0.0692, 1.0000,-0.0308,-0.0767,-0.0393, 0.0018,-1.3850,-1.5050, 3.0710
09-Sep-2020 11:15:46.095,-0.0671, 1.0012,-0.0360,-0.0711,-0.0192, 0.0037,-1.3953,-1.5052, 3.0611
09-Sep-2020 11:15:46.105,-0.0672, 0.9980,-0.0387,-0.0613, 0.0065, 0.0106,-1.4046,-1.5054, 3.0520
09-Sep-2020 11:15:46.115,-0.0703, 0.9926,-0.0385,-0.0518, 0.0209, 0.0105,-1.4120,-1.5056, 3.0446
09-Sep-2020 11:15:46.125,-0.0766, 0.9884,-0.0361,-0.0514, 0.0196, 0.0137,-1.4180,-1.5059, 3.0383
09-Sep-2020 11:15:46.135,-0.0822, 0.9857,-0.0304,-0.0516, 0.0087, 0.0112,-1.4242,-1.5061, 3.0320
09-Sep-2020 11:15:46.145,-0.0848, 0.9871,-0.0274,-0.0577,-0.0129, 0.0101,-1.4308,-1.5063, 3.0252
09-Sep-2020 11:15:46.155,-0.0820, 0.9915,-0.0246,-0.0650,-0.0400, 0.0058,-1.4388,-1.5065, 3.0174
09-Sep-2020 11:15:46.165,-0.0763, 0.9962,-0.0203,-0.0741,-0.0592, 0.0015,-1.4480,-1.5067, 3.0086
09-Sep-2020 11:15:46.175,-0.0724, 0.9970,-0.0193,-0.0777,-0.0704, 0.0042,-1.4586,-1.5069, 2.9985
09-Sep-2020 11:15:46.185,-0.0696, 0.9979,-0.0195,-0.0818,-0.0655, 0.0041,-1.4700,-1.5071, 2.9878
09-Sep-2020 11:15:46.195,-0.0669, 0.9967,-0.0225,-0.0796,-0.0578, 0.0020,-1.4817,-1.5073, 2.9767
09-Sep-2020 11:15:46.205,-0.0631, 0.9939,-0.0229,-0.0841,-0.0516,-0.0000,-1.4934,-1.5074, 2.9656
09-Sep-2020 11:15:46.215,-0.0602, 0.9903,-0.0247,-0.0801,-0.0464, 0.0027,-1.5055,-1.5075, 2.9540
09-Sep-2020 11:15:46.225,-0.0601, 0.9881,-0.0261,-0.0868,-0.0326,-0.0005,-1.5174,-1.5076, 2.9426
09-Sep-2020 11:15:46.237,-0.0606, 0.9878,-0.0240,-0.0814,-0.0194, 0.0010,-1.5298,-1.5077, 2.9305
09-Sep-2020 11:15:46.244,-0.0607, 0.9901,-0.0247,-0.0767,-0.0162,-0.0021,-1.5417,-1.5078, 2.9188
09-Sep-2020 11:15:46.254,-0.0589, 0.9931,-0.0241,-0.0704,-0.0132,-0.0071,-1.5528,-1.5078, 2.9078
09-Sep-2020 11:15:46.264,-0.0559, 0.9946,-0.0216,-0.0720,-0.0062,-0.0055,-1.5630,-1.5078, 2.8977
09-Sep-2020 11:15:46.274,-0.0536, 0.9946,-0.0186,-0.0814, 0.0069,-0.0036,-1.5735,-1.5078, 2.8872
09-Sep-2020 11:15:46.284,-0.0506, 0.9931,-0.0186,-0.0845, 0.0179, 0.0010,-1.5851,-1.5079, 2.8756
09-Sep-2020 11:15:46.294,-0.0491, 0.9942,-0.0191,-0.0794, 0.0364, 0.0087,-1.5969,-1.5079, 2.8635
09-Sep-2020 11:15:46.304,-0.0458, 0.9968,-0.0166,-0.0726, 0.0537, 0.0130,-1.6078,-1.5081, 2.8523
09-Sep-2020 11:15:46.314,-0.0433, 0.9989,-0.0157,-0.0687, 0.0679, 0.0183,-1.6177,-1.5082, 2.8419
09-Sep-2020 11:15:46.324,-0.0444, 1.0000,-0.0139,-0.0684, 0.0865, 0.0240,-1.6269,-1.5085, 2.8320
09-Sep-2020 11:15:46.334,-0.0490, 1.0026,-0.0130,-0.0645, 0.1065, 0.0320,-1.6359,-1.5087, 2.8221
09-Sep-2020 11:15:46.344,-0.0571, 1.0021,-0.0130,-0.0632, 0.1157, 0.0317,-1.6443,-1.5091, 2.8126
09-Sep-2020 11:15:46.354,-0.0678, 0.9979,-0.0144,-0.0636, 0.1252, 0.0263,-1.6526,-1.5094, 2.8031
09-Sep-2020 11:15:46.364,-0.0756, 0.9934,-0.0130,-0.0641, 0.1276, 0.0219,-1.6608,-1.5097, 2.7936
09-Sep-2020 11:15:46.374,-0.0801, 0.9891,-0.0116,-0.0670, 0.1211, 0.0172,-1.6693,-1.5100, 2.7839
09-Sep-2020 11:15:46.384,-0.0831, 0.9866,-0.0083,-0.0724, 0.1094, 0.0150,-1.6782,-1.5101, 2.7738
09-Sep-2020 11:15:46.394,-0.0834, 0.9883,-0.0043,-0.0889, 0.0801, 0.0099,-1.6885,-1.5103, 2.7625
09-Sep-2020 11:15:46.403,-0.0831, 0.9922,-0.0044,-0.1011, 0.0533, 0.0079,-1.7013,-1.5104, 2.7488
09-Sep-2020 11:15:46.413,-0.0853, 0.9959,-0.0052,-0.1021, 0.0256, 0.0007,-1.7164,-1.5104, 2.7332
09-Sep-2020 11:15:46.424,-0.0849, 0.9992,-0.0069,-0.1039, 0.0165,-0.0025,-1.7319,-1.5104, 2.7174
09-Sep-2020 11:15:46.433,-0.0834, 1.0021,-0.0083,-0.0963, 0.0131,-0.0021,-1.7473,-1.5103, 2.7018
09-Sep-2020 11:15:46.444,-0.0835, 1.0034,-0.0099,-0.0896, 0.0045,-0.0132,-1.7615,-1.5101, 2.6875
09-Sep-2020 11:15:46.454,-0.0762, 0.9995,-0.0102,-0.0973,-0.0064,-0.0175,-1.7744,-1.5099, 2.6745
09-Sep-2020 11:15:46.464,-0.0652, 0.9938,-0.0121,-0.1053,-0.0103,-0.0151,-1.7883,-1.5096, 2.6606
09-Sep-2020 11:15:46.473,-0.0568, 0.9857,-0.0130,-0.1026, 0.0182,-0.0101,-1.8034,-1.5093, 2.6456
09-Sep-2020 11:15:46.483,-0.0530, 0.9827,-0.0085,-0.0973, 0.0616,-0.0055,-1.8178,-1.5090, 2.6309
09-Sep-2020 11:15:46.493,-0.0507, 0.9857,-0.0055,-0.0961, 0.0991, 0.0042,-1.8313,-1.5088, 2.6169
09-Sep-2020 11:15:46.503,-0.0502, 0.9892,-0.0014,-0.0891, 0.1262, 0.0164,-1.8442,-1.5086, 2.6029
09-Sep-2020 11:15:46.513,-0.0593, 0.9972, 0.0060,-0.0711, 0.1574, 0.0348,-1.8563,-1.5086, 2.5896
09-Sep-2020 11:15:46.523,-0.0780, 1.0047, 0.0139,-0.0628, 0.1396, 0.0271,-1.8663,-1.5087, 2.5780
09-Sep-2020 11:15:46.533,-0.0907, 1.0120, 0.0171,-0.0921, 0.0719, 0.0154,-1.8753,-1.5089, 2.5677
