Timestamp,accelX,accelY,accelZ,gyroX(rad/s),gyroY(rad/s),gyroZ(rad/s),Roll(rads),Pitch(rads),Yaw(rads)
09-Sep-2020 10:49:32.245, 0.0552,-0.2899,-0.9521, 0.3563,-1.4439,-1.0440,-0.0577, 0.4373, 0.3831
09-Sep-2020 10:49:32.248, 0.0673,-0.3258,-0.8213,-0.1538,-1.4553,-0.8456,-0.0712, 0.2053,-2.4854
09-Sep-2020 10:49:32.257, 0.0452,-0.3447,-0.7820,-0.6942,-1.3005,-0.6239,-0.0839, 0.2044,-2.4940
09-Sep-2020 10:49:32.267, 0.0221,-0.3327,-0.8039,-1.1153,-1.0414,-0.4033,-0.0954, 0.1982,-2.5009
09-Sep-2020 10:49:32.277, 0.0105,-0.3042,-0.8614,-1.3256,-0.6668,-0.1602,-0.1048, 0.1876,-2.5059
09-Sep-2020 10:49:32.286,-0.0060,-0.2503,-0.9538,-1.2951,-0.2737, 0.0957,-0.1109, 0.1749,-2.5089
09-Sep-2020 10:49:32.296,-0.0379,-0.1693,-1.0180,-1.1498,-0.0122, 0.2972,-0.1136, 0.1620,-2.5093
09-Sep-2020 10:49:32.306,-0.0664,-0.0933,-1.0179,-1.0270, 0.3932, 0.4584,-0.1139, 0.1503,-2.5076
09-Sep-2020 10:49:32.316,-0.0764,-0.0693,-1.0543,-0.6731, 0.8518, 0.5151,-0.1105, 0.1398,-2.5042
09-Sep-2020 10:49:32.326,-0.0548,-0.0643,-1.1972,-0.1727, 0.7883, 0.5403,-0.1031, 0.1327,-2.4997
09-Sep-2020 10:49:32.336,-0.0111, 0.0201,-1.2129, 0.3008, 0.4334, 0.5351,-0.0961, 0.1304,-2.4944
09-Sep-2020 10:49:32.346,-0.0003, 0.0708,-1.1499, 0.6595, 0.2396, 0.4509,-0.0924, 0.1329,-2.4888
09-Sep-2020 10:49:32.356, 0.0047, 0.0247,-1.1318, 0.9288, 0.0936, 0.2676,-0.0908, 0.1389,-2.4836
09-Sep-2020 10:49:32.366, 0.0119,-0.0596,-1.1149, 1.0636,-0.2556, 0.0313,-0.0905, 0.1478,-2.4801
09-Sep-2020 10:49:32.376,-0.0046,-0.1399,-1.0051, 1.0182,-0.5416,-0.1333,-0.0932, 0.1583,-2.4786
09-Sep-2020 10:49:32.386,-0.0299,-0.2006,-0.8904, 0.7341,-0.7364,-0.1833,-0.0986, 0.1683,-2.4789
09-Sep-2020 10:49:32.396,-0.0974,-0.2105,-0.7357, 0.2877,-0.7584,-0.1878,-0.1057, 0.1756,-2.4799
09-Sep-2020 10:49:32.406,-0.1894,-0.2156,-0.6259,-0.1929,-0.7200,-0.2492,-0.1130, 0.1787,-2.4814
09-Sep-2020 10:49:32.416,-0.2332,-0.2092,-0.5490,-0.6327,-0.4378,-0.4579,-0.1195, 0.1771,-2.4842
09-Sep-2020 10:49:32.426,-0.2243,-0.2111,-0.5603,-1.0123, 0.0157,-0.6755,-0.1228, 0.1715,-2.4895
09-Sep-2020 10:49:32.436,-0.1409,-0.2067,-0.6521,-1.2767, 0.4409,-0.7907,-0.1214, 0.1623,-2.4973
09-Sep-2020 10:49:32.446,-0.0334,-0.1868,-0.8009,-1.3841, 0.5949,-0.7736,-0.1158, 0.1508,-2.5066
09-Sep-2020 10:49:32.456, 0.0294,-0.1504,-0.8964,-1.3692, 0.6027,-0.6843,-0.1087, 0.1380,-2.5157
09-Sep-2020 10:49:32.466,-0.0335,-0.0703,-0.9470,-1.2739, 0.4960,-0.6421,-0.1017, 0.1252,-2.5240
09-Sep-2020 10:49:32.476,-0.1978, 0.0202,-0.9539,-1.1226, 0.4847,-0.8179,-0.0958, 0.1133,-2.5317
09-Sep-2020 10:49:32.485,-0.3126, 0.0441,-0.9313,-0.9857, 0.6192,-1.2199,-0.0899, 0.1029,-2.5410
09-Sep-2020 10:49:32.496,-0.3392, 0.0212,-0.8932,-0.8956, 1.0730,-1.6845,-0.0823, 0.0942,-2.5539
09-Sep-2020 10:49:32.506,-0.2585,-0.0220,-0.9277,-0.7340, 1.6279,-2.0574,-0.0700, 0.0867,-2.5713
09-Sep-2020 10:49:32.515,-0.1011,-0.0520,-1.0223,-0.4150, 1.9959,-2.2804,-0.0522, 0.0807,-2.5920
09-Sep-2020 10:49:32.525, 0.0158,-0.0779,-1.0811,-0.0094, 2.2129,-2.3826,-0.0307, 0.0776,-2.6148
09-Sep-2020 10:49:32.535, 0.0490,-0.1127,-1.0697, 0.3815, 2.4359,-2.4149,-0.0068, 0.0780,-2.6385
09-Sep-2020 10:49:32.545,-0.0101,-0.1621,-1.0312, 0.6331, 2.7273,-2.5421, 0.0194, 0.0816,-2.6626
09-Sep-2020 10:49:32.556,-0.0441,-0.1451,-0.9884, 0.7211, 2.9913,-2.7924, 0.0486, 0.0869,-2.6882
09-Sep-2020 10:49:32.565,-0.0087,-0.1018,-0.9644, 0.7038, 3.2400,-3.0704, 0.0809, 0.0922,-2.7164
09-Sep-2020 10:49:32.575, 0.0320,-0.1079,-1.0419, 0.7025, 3.2760,-3.3918, 0.1159, 0.0963,-2.7476
09-Sep-2020 10:49:32.585, 0.0632,-0.0714,-1.0968, 0.7037, 3.2241,-3.7365, 0.1518, 0.0987,-2.7821
09-Sep-2020 10:49:32.595, 0.0602,-0.0415,-0.9937, 0.6981, 3.7203,-4.2816, 0.1880, 0.0993,-2.8203
09-Sep-2020 10:49:32.605, 0.0905, 0.0231,-0.9196, 0.7811, 4.5017,-4.7480, 0.2294, 0.0974,-2.8635
09-Sep-2020 10:49:32.615, 0.1672, 0.0976,-0.9066, 0.9591, 5.1939,-5.1396, 0.2788, 0.0932,-2.9113
09-Sep-2020 10:49:32.625, 0.2936, 0.1027,-0.9139, 1.1412, 5.1771,-5.5268, 0.3346, 0.0869,-2.9631
09-Sep-2020 10:49:32.635, 0.5201, 0.0300,-0.9191, 1.2526, 4.4488,-5.7248, 0.3902, 0.0780,-3.0186
09-Sep-2020 10:49:32.645, 0.6275,-0.0578,-0.7914, 1.3178, 3.7681,-5.6490, 0.4387, 0.0665,-3.0756
09-Sep-2020 10:49:32.655, 0.6134,-0.1595,-0.6410, 1.2892, 3.4543,-5.2198, 0.4798, 0.0535,-3.1317
09-Sep-2020 10:49:32.665, 0.6250,-0.2642,-0.5717, 1.0420, 3.3801,-4.3612, 0.5167, 0.0400, 3.1001
09-Sep-2020 10:49:32.675, 0.6546,-0.3228,-0.6092, 0.5801, 3.1600,-3.4994, 0.5517, 0.0268, 3.0575
09-Sep-2020 10:49:32.685, 0.6490,-0.2135,-0.7092, 0.1456, 2.5948,-3.2296, 0.5835, 0.0128, 3.0248
09-Sep-2020 10:49:32.695, 0.6360,-0.0406,-0.7341,-0.1598, 2.0416,-3.3698, 0.6095,-0.0040, 2.9971
09-Sep-2020 10:49:32.704, 0.6597, 0.0258,-0.7672,-0.4234, 1.6312,-3.3962, 0.6295,-0.0247, 2.9708
09-Sep-2020 10:49:32.715, 0.6995, 0.0148,-0.8646,-0.6671, 1.4554,-3.0840, 0.6450,-0.0480, 2.9464
09-Sep-2020 10:49:32.724, 0.7118, 0.0269,-0.9709,-0.6901, 1.4884,-2.7186, 0.6584,-0.0716, 2.9259
09-Sep-2020 10:49:32.734, 0.6598, 0.0770,-1.1009,-0.4391, 1.4576,-2.5568, 0.6717,-0.0936, 2.9087
09-Sep-2020 10:49:32.744, 0.6179, 0.1247,-1.1537,-0.0916, 1.1779,-2.5374, 0.6842,-0.1129, 2.8914
09-Sep-2020 10:49:32.754, 0.6567, 0.1649,-1.1198, 0.1684, 0.7322,-2.4859, 0.6936,-0.1296, 2.8725
09-Sep-2020 10:49:32.765, 0.6662, 0.1553,-1.0555, 0.2976, 0.4539,-2.3688, 0.6982,-0.1441, 2.8523
09-Sep-2020 10:49:32.774, 0.6487, 0.1674,-1.0000, 0.4493, 0.5876,-2.2473, 0.7000,-0.1570, 2.8322
09-Sep-2020 10:49:32.784, 0.6146, 0.1926,-0.9516, 0.7890, 0.9774,-2.1725, 0.7026,-0.1678, 2.8119
09-Sep-2020 10:49:32.794, 0.6384, 0.2082,-0.8836, 1.1555, 1.4858,-2.1272, 0.7087,-0.1758, 2.7900
09-Sep-2020 10:49:32.804, 0.7087, 0.1554,-0.8584, 1.3724, 1.9340,-1.9732, 0.7192,-0.1809, 2.7662
09-Sep-2020 10:49:32.814, 0.7601, 0.0706,-0.8445, 1.4504, 2.3315,-1.7044, 0.7341,-0.1837, 2.7422
09-Sep-2020 10:49:32.824, 0.7579, 0.0405,-0.8372, 1.5113, 2.6290,-1.4804, 0.7531,-0.1845, 2.7196
09-Sep-2020 10:49:32.834, 0.8170, 0.0213,-0.7990, 1.5099, 2.7513,-1.2584, 0.7752,-0.1838, 2.6982
09-Sep-2020 10:49:32.844, 0.8992,-0.0788,-0.7003, 1.3573, 2.8736,-0.8859, 0.7990,-0.1819, 2.6786
09-Sep-2020 10:49:32.854, 0.9282,-0.1729,-0.6502, 1.0664, 3.1245,-0.4098, 0.8248,-0.1790, 2.6626
09-Sep-2020 10:49:32.864, 0.9244,-0.1527,-0.6939, 0.7978, 3.3403, 0.0631, 0.8540,-0.1748, 2.6518
09-Sep-2020 10:49:32.874, 0.8667,-0.0470,-0.7362, 0.6327, 3.4828, 0.2969, 0.8861,-0.1692, 2.6459
09-Sep-2020 10:49:32.884, 0.7740, 0.0481,-0.7215, 0.5210, 3.6286, 0.2610, 0.9202,-0.1630, 2.6426
09-Sep-2020 10:49:32.894, 0.7108, 0.0866,-0.7021, 0.3386, 3.7310, 0.0642, 0.9559,-0.1579, 2.6400
09-Sep-2020 10:49:32.904, 0.7220, 0.1200,-0.7430, 0.0984, 3.5872,-0.1848, 0.9925,-0.1554, 2.6376
09-Sep-2020 10:49:32.914, 0.7795, 0.1957,-0.7504,-0.0996, 3.4105,-0.3909, 1.0278,-0.1563, 2.6357
09-Sep-2020 10:49:32.924, 0.8989, 0.3014,-0.7742,-0.1572, 3.2475,-0.5007, 1.0616,-0.1600, 2.6346
09-Sep-2020 10:49:32.934, 1.0066, 0.3086,-0.7724,-0.0858, 3.2543,-0.4648, 1.0938,-0.1649, 2.6336
09-Sep-2020 10:49:32.943, 1.1240, 0.1856,-0.6775, 0.1126, 3.3812,-0.2591, 1.1260,-0.1692, 2.6323
09-Sep-2020 10:49:32.954, 1.2134, 0.0494,-0.5845, 0.4228, 3.4554, 0.1743, 1.1592,-0.1709, 2.6301
09-Sep-2020 10:49:32.964, 1.2175, 0.0155,-0.5053, 0.7745, 3.5785, 0.6855, 1.1931,-0.1675, 2.6268
09-Sep-2020 10:49:32.974, 1.1579, 0.0943,-0.4097, 1.0520, 3.8657, 1.1115, 1.2280,-0.1584, 2.6220
09-Sep-2020 10:49:32.983, 1.0667, 0.2104,-0.3402, 1.1976, 4.2718, 1.3372, 1.2656,-0.1447, 2.6155
09-Sep-2020 10:49:32.993, 0.9845, 0.3149,-0.2929, 1.3023, 4.7442, 1.3734, 1.3070,-0.1286, 2.6077
09-Sep-2020 10:49:33.003, 0.9661, 0.3717,-0.2562, 1.5006, 5.3205, 1.3617, 1.3532,-0.1122, 2.5983
09-Sep-2020 10:49:33.013, 0.9675, 0.3923,-0.2140, 1.8215, 6.0382, 1.3891, 1.4049,-0.0959, 2.5860
09-Sep-2020 10:49:33.023, 0.9680, 0.3214,-0.1615, 2.2099, 6.8429, 1.5179, 1.4637,-0.0796, 2.5698
09-Sep-2020 10:49:33.033, 0.9784, 0.1672,-0.1161, 2.5928, 7.7249, 1.7520, 1.5303,-0.0628, 2.5489
09-Sep-2020 10:49:33.043, 0.9062, 0.0905,-0.0913, 2.9700, 8.6436, 1.9988, 1.6058,-0.0452, 2.5231
09-Sep-2020 10:49:33.053, 0.8636, 0.1508,-0.0911, 3.3790, 9.4470, 2.1876, 1.6907,-0.0277, 2.4920
09-Sep-2020 10:49:33.063, 0.7661, 0.2273,-0.0596, 3.8495, 10.1589, 2.2793, 1.7840,-0.0118, 2.4552
09-Sep-2020 10:49:33.073, 0.6611, 0.1626,-0.1107, 4.3247, 9.9677, 2.2841, 1.8842, 0.0002, 2.4122
09-Sep-2020 10:49:33.083, 0.7013, 0.1756,-0.2680, 4.6959, 8.5913, 1.9946, 1.9828, 0.0060, 2.3640
09-Sep-2020 10:49:33.093, 0.6544, 0.2680,-0.2991, 4.9707, 6.5040, 1.3102, 2.0681, 0.0031, 2.3135
09-Sep-2020 10:49:33.103, 0.5752, 0.2580,-0.2344, 5.0181, 4.0014, 0.4458, 2.1324,-0.0107, 2.2643
09-Sep-2020 10:49:33.113, 0.5493, 0.2358, 0.0166, 4.3150, 1.8545,-0.3470, 2.1714,-0.0341, 2.2205
09-Sep-2020 10:49:33.123, 0.5893, 0.2800, 0.5788, 2.8476, 1.0943,-0.8148, 2.1892,-0.0610, 2.1876
09-Sep-2020 10:49:33.133, 0.7162, 0.2634, 0.8512, 1.8393, 1.5080,-0.8678, 2.1995,-0.0841, 2.1688
09-Sep-2020 10:49:33.143, 0.7741, 0.0798, 0.6727, 1.5394, 2.0528,-0.6565, 2.2136,-0.1020, 2.1586
09-Sep-2020 10:49:33.153, 0.6763,-0.0662, 0.5613, 1.6926, 2.7344,-0.4588, 2.2332,-0.1166, 2.1500
09-Sep-2020 10:49:33.162, 0.4875,-0.0022, 0.4970, 1.9853, 3.3153,-0.4784, 2.2590,-0.1308, 2.1396
09-Sep-2020 10:49:33.172, 0.3096, 0.1036, 0.5670, 2.0814, 3.9725,-0.7247, 2.2904,-0.1472, 2.1276
09-Sep-2020 10:49:33.182, 0.3245, 0.1495, 0.6760, 2.0294, 4.6111,-0.9939, 2.3283,-0.1664, 2.1170
09-Sep-2020 10:49:33.192, 0.4201, 0.2337, 0.7022, 2.0479, 5.0470,-1.1793, 2.3727,-0.1876, 2.1093
09-Sep-2020 10:49:33.202, 0.5686, 0.1994, 0.7509, 2.0307, 5.2220,-1.1552, 2.4216,-0.2104, 2.1039
09-Sep-2020 10:49:33.212, 0.6801, 0.0840, 0.8342, 1.8887, 5.1944,-0.9649, 2.4725,-0.2332, 2.0996
09-Sep-2020 10:49:33.222, 0.7212, 0.0512, 0.8694, 1.6050, 4.7806,-0.7526, 2.5230,-0.2539, 2.0958
09-Sep-2020 10:49:33.233, 0.6630, 0.1419, 0.8345, 1.2372, 3.8502,-0.6607, 2.5695,-0.2713, 2.0930
09-Sep-2020 10:49:33.242, 0.5878, 0.2480, 0.7821, 0.9109, 2.6921,-0.6472, 2.6074,-0.2852, 2.0920
09-Sep-2020 10:49:33.252, 0.5188, 0.2664, 0.7928, 0.7134, 1.8966,-0.6043, 2.6347,-0.2964, 2.0930
09-Sep-2020 10:49:33.262, 0.4443, 0.2515, 0.8735, 0.6301, 1.6975,-0.5016, 2.6545,-0.3055, 2.0948
09-Sep-2020 10:49:33.272, 0.3800, 0.2373, 1.0041, 0.6391, 2.0451,-0.3656, 2.6722,-0.3134, 2.0963
09-Sep-2020 10:49:33.282, 0.3134, 0.2906, 1.0940, 0.5759, 2.5801,-0.2636, 2.6927,-0.3207, 2.0967
09-Sep-2020 10:49:33.292, 0.2605, 0.3639, 1.0959, 0.4035, 2.9262,-0.2612, 2.7183,-0.3269, 2.0967
09-Sep-2020 10:49:33.302, 0.2447, 0.3937, 0.9965, 0.2550, 2.8699,-0.3549, 2.7474,-0.3317, 2.0975
09-Sep-2020 10:49:33.312, 0.2753, 0.3896, 0.8810, 0.2189, 2.4362,-0.4488, 2.7765,-0.3354, 2.0999
09-Sep-2020 10:49:33.322, 0.3252, 0.3575, 0.8207, 0.2568, 1.7816,-0.4564, 2.8017,-0.3390, 2.1033
09-Sep-2020 10:49:33.332, 0.3645, 0.3235, 0.8380, 0.2851, 1.1094,-0.3772, 2.8206,-0.3429, 2.1069
09-Sep-2020 10:49:33.342, 0.3600, 0.2950, 0.8878, 0.2907, 0.5351,-0.2558, 2.8326,-0.3467, 2.1096
09-Sep-2020 10:49:33.352, 0.2818, 0.2910, 0.9370, 0.2967, 0.1809,-0.1687, 2.8387,-0.3503, 2.1112
09-Sep-2020 10:49:33.361, 0.1777, 0.3351, 0.9592, 0.3329,-0.0180,-0.1825, 2.8408,-0.3536, 2.1120
09-Sep-2020 10:49:33.371, 0.0901, 0.4537, 0.9736, 0.3445,-0.0531,-0.3257, 2.8410,-0.3573, 2.1128
09-Sep-2020 10:49:33.382, 0.0571, 0.5094, 1.0120, 0.3141, 0.1652,-0.5403, 2.8414,-0.3616, 2.1150
09-Sep-2020 10:49:33.391, 0.0737, 0.4806, 1.0002, 0.2994, 0.3390,-0.7647, 2.8446,-0.3662, 2.1194
09-Sep-2020 10:49:33.401, 0.1217, 0.4566, 0.9579, 0.2650, 0.3273,-0.9350, 2.8503,-0.3712, 2.1262
09-Sep-2020 10:49:33.411, 0.1987, 0.4606, 0.9636, 0.1628, 0.2641,-1.0462, 2.8566,-0.3764, 2.1349
09-Sep-2020 10:49:33.421, 0.2844, 0.4451, 0.9815, 0.0386, 0.2689,-1.0804, 2.8631,-0.3808, 2.1450
09-Sep-2020 10:49:33.431, 0.3483, 0.4197, 0.9501,-0.0373, 0.1816,-1.0311, 2.8697,-0.3841, 2.1559
09-Sep-2020 10:49:33.441, 0.3814, 0.3906, 0.9029,-0.0818,-0.0172,-0.9168, 2.8755,-0.3865, 2.1665
09-Sep-2020 10:49:33.451, 0.3833, 0.3755, 0.8800,-0.1176,-0.2183,-0.7836, 2.8789,-0.3881, 2.1762
09-Sep-2020 10:49:33.461, 0.3644, 0.3796, 0.8650,-0.1544,-0.3672,-0.6647, 2.8800,-0.3890, 2.1846
09-Sep-2020 10:49:33.471, 0.3302, 0.4036, 0.8220,-0.1944,-0.5013,-0.5835, 2.8791,-0.3893, 2.1918
09-Sep-2020 10:49:33.481, 0.2747, 0.4532, 0.7405,-0.2213,-0.6980,-0.5923, 2.8765,-0.3890, 2.1984
09-Sep-2020 10:49:33.491, 0.2428, 0.4745, 0.6738,-0.1658,-0.8932,-0.6657, 2.8721,-0.3885, 2.2051
09-Sep-2020 10:49:33.501, 0.2799, 0.4540, 0.6620,-0.0197,-0.9679,-0.7213, 2.8660,-0.3887, 2.2124
09-Sep-2020 10:49:33.511, 0.3373, 0.4003, 0.6774, 0.1366,-0.9681,-0.6997, 2.8592,-0.3905, 2.2197
09-Sep-2020 10:49:33.521, 0.3815, 0.3350, 0.7126, 0.2408,-0.8752,-0.6076, 2.8522,-0.3938, 2.2264
09-Sep-2020 10:49:33.531, 0.4184, 0.2969, 0.7426, 0.3154,-0.6773,-0.4749, 2.8456,-0.3978, 2.2318
09-Sep-2020 10:49:33.541, 0.4412, 0.3071, 0.7284, 0.4347,-0.5215,-0.3120, 2.8403,-0.4022, 2.2356
09-Sep-2020 10:49:33.550, 0.4084, 0.3709, 0.7009, 0.5842,-0.4831,-0.2035, 2.8357,-0.4073, 2.2374
09-Sep-2020 10:49:33.561, 0.3393, 0.4783, 0.6797, 0.7184,-0.5566,-0.2403, 2.8309,-0.4135, 2.2376
09-Sep-2020 10:49:33.571, 0.3232, 0.5321, 0.7159, 0.8393,-0.5396,-0.3512, 2.8253,-0.4210, 2.2376
09-Sep-2020 10:49:33.580, 0.6169, 0.3766, 0.9810, 1.1462, 0.3428,-0.3891, 2.8208,-0.4302, 2.2382
09-Sep-2020 10:49:33.591, 0.7728, 0.2134, 0.9543, 1.3412, 0.5580, 0.1251, 2.8235,-0.4420, 2.2377
09-Sep-2020 10:49:33.600, 0.4331, 0.4885, 0.7368, 1.1770,-0.1192, 0.2618, 2.8260,-0.4541, 2.2322
09-Sep-2020 10:49:33.610, 0.1859, 0.5666, 0.8697, 1.0392,-0.0234,-0.0270, 2.8225,-0.4646, 2.2256
09-Sep-2020 10:49:33.620, 0.1477, 0.4635, 0.8050, 1.0852, 0.2012,-0.2413, 2.8207,-0.4746, 2.2220
09-Sep-2020 10:49:33.630, 0.1974, 0.4089, 0.7578, 1.3594, 0.4496,-0.3417, 2.8220,-0.4857, 2.2205
09-Sep-2020 10:49:33.640,-0.0198, 0.5838, 0.9975, 1.3326,-0.0030,-0.5438, 2.8255,-0.4996, 2.2194
09-Sep-2020 10:49:33.650,-0.0983, 0.7796, 1.5077, 0.6974, 0.4195,-0.8589, 2.8270,-0.5134, 2.2208
09-Sep-2020 10:49:33.660, 0.2336, 0.5471, 1.3544, 0.7249, 2.0643,-0.7600, 2.8354,-0.5232, 2.2269
09-Sep-2020 10:49:33.670, 0.2086, 0.4972, 1.0260, 0.9426, 2.8885,-0.5942, 2.8581,-0.5324, 2.2327
09-Sep-2020 10:49:33.680, 0.1086, 0.5349, 0.8916, 1.1876, 3.1821,-0.7553, 2.8886,-0.5431, 2.2366
09-Sep-2020 10:49:33.690, 0.1345, 0.5472, 0.7819, 1.4158, 3.2393,-0.9099, 2.9228,-0.5563, 2.2418
09-Sep-2020 10:49:33.701, 0.2440, 0.6296, 0.7620, 1.5613, 3.3551,-0.8624, 2.9588,-0.5719, 2.2488
09-Sep-2020 10:49:33.710, 0.3528, 0.6158, 0.8025, 1.5324, 3.5769,-0.8728, 2.9963,-0.5885, 2.2559
09-Sep-2020 10:49:33.720, 0.3200, 0.4942, 0.8069, 1.5389, 3.4123,-0.8168, 3.0360,-0.6048, 2.2638
09-Sep-2020 10:49:33.730, 0.3058, 0.4812, 0.8171, 1.5584, 3.1736,-0.6590, 3.0746,-0.6208, 2.2719
09-Sep-2020 10:49:33.740, 0.1682, 0.5469, 0.8299, 1.4392, 2.9114,-0.5637, 3.1103,-0.6365, 2.2791
09-Sep-2020 10:49:33.750,-0.0832, 0.6394, 0.8397, 1.1479, 2.6318,-0.5944,-3.1398,-0.6508, 2.2858
09-Sep-2020 10:49:33.760,-0.3074, 0.7104, 0.8980, 0.8691, 2.6156,-0.7658,-3.1088,-0.6622, 2.2936
09-Sep-2020 10:49:33.770,-0.4329, 0.7054, 0.9513, 0.6721, 3.0305,-1.0534,-3.0761,-0.6706, 2.3038
09-Sep-2020 10:49:33.780,-0.4034, 0.6879, 0.9148, 0.6080, 3.3043,-1.3413,-3.0374,-0.6765, 2.3178
09-Sep-2020 10:49:33.789,-0.2902, 0.6636, 0.8694, 0.6183, 3.3034,-1.5526,-2.9935,-0.6809, 2.3356
09-Sep-2020 10:49:33.800,-0.1819, 0.5970, 0.8899, 0.5812, 3.2427,-1.5886,-2.9475,-0.6843, 2.3564
09-Sep-2020 10:49:33.809,-0.1118, 0.5804, 0.9124, 0.5081, 3.3087,-1.4951,-2.9017,-0.6866, 2.3777
09-Sep-2020 10:49:33.819,-0.0232, 0.5584, 0.6922, 0.6054, 2.9773,-1.2499,-2.8562,-0.6878, 2.3978
09-Sep-2020 10:49:33.829, 0.1355, 0.5351, 0.2280, 0.9985, 2.0669,-0.9211,-2.8158,-0.6901, 2.4155
09-Sep-2020 10:49:33.839, 0.1865, 0.5285, 0.6399, 0.8506, 1.7104,-0.5884,-2.7850,-0.6961, 2.4308
09-Sep-2020 10:49:33.849, 0.1052, 0.5243, 0.8139, 0.5778, 1.3885,-0.3010,-2.7610,-0.7019, 2.4418
09-Sep-2020 10:49:33.859,-0.0918, 0.5998, 0.8478, 0.3934, 1.2385,-0.1487,-2.7428,-0.7062, 2.4484
09-Sep-2020 10:49:33.869,-0.2994, 0.6833, 0.9294, 0.1959, 1.3332,-0.1098,-2.7278,-0.7092, 2.4522
09-Sep-2020 10:49:33.879,-0.4845, 0.7534, 0.9633,-0.0693, 1.6063,-0.2148,-2.7129,-0.7105, 2.4546
09-Sep-2020 10:49:33.889,-0.6578, 0.8005, 0.9204,-0.2998, 1.9344,-0.4889,-2.6954,-0.7090, 2.4569
09-Sep-2020 10:49:33.899,-0.7136, 0.8288, 0.8277,-0.3947, 2.2590,-0.7750,-2.6736,-0.7043, 2.4609
09-Sep-2020 10:49:33.909,-0.5199, 0.8095, 0.6786,-0.3820, 2.2187,-0.9096,-2.6471,-0.6975, 2.4673
09-Sep-2020 10:49:33.919,-0.1172, 0.6357, 0.6077,-0.4337, 1.8697,-0.7485,-2.6205,-0.6898, 2.4749
09-Sep-2020 10:49:33.929, 0.1160, 0.4530, 0.7175,-0.4752, 1.4140,-0.3170,-2.5988,-0.6825, 2.4801
09-Sep-2020 10:49:33.939, 0.1286, 0.3663, 0.6272,-0.5328, 0.6112, 0.2154,-2.5849,-0.6769, 2.4803
09-Sep-2020 10:49:33.949, 0.0605, 0.3092, 0.7033,-0.6917, 0.1153, 0.8464,-2.5823,-0.6736, 2.4742
09-Sep-2020 10:49:33.959,-0.0653, 0.2872, 0.6122,-0.7693,-0.3154, 1.4769,-2.5897,-0.6723, 2.4604
09-Sep-2020 10:49:33.969,-0.1746, 0.3323, 0.5394,-0.7003,-0.5357, 1.9679,-2.6058,-0.6735, 2.4393
09-Sep-2020 10:49:33.979,-0.3221, 0.6051, 0.8332,-0.4051, 0.1937, 2.0379,-2.6267,-0.6773, 2.4134
09-Sep-2020 10:49:33.989,-0.4935, 0.8972, 0.8488, 0.2195, 0.6347, 1.5643,-2.6405,-0.6838, 2.3887
09-Sep-2020 10:49:33.999,-0.4722, 0.6600, 0.4944, 0.5014, 0.3434, 1.2427,-2.6452,-0.6930, 2.3720
09-Sep-2020 10:49:34.009,-0.3682, 0.4600, 0.7310, 0.3565, 0.5562, 1.2105,-2.6489,-0.7032, 2.3604
09-Sep-2020 10:49:34.018,-0.3559, 0.3857, 0.7537, 0.0988, 0.9027, 1.3092,-2.6511,-0.7121, 2.3485
09-Sep-2020 10:49:34.028,-0.3925, 0.4238, 0.7076,-0.0650, 1.2005, 1.3222,-2.6516,-0.7192, 2.3339
09-Sep-2020 10:49:34.039,-0.3792, 0.4804, 0.6937,-0.1786, 1.3594, 1.2561,-2.6503,-0.7249, 2.3180
09-Sep-2020 10:49:34.049,-0.3551, 0.4961, 0.6885,-0.2840, 1.4574, 1.1863,-2.6473,-0.7293, 2.3021
09-Sep-2020 10:49:34.058,-0.3286, 0.5538, 0.6790,-0.3693, 1.4174, 1.1890,-2.6435,-0.7325, 2.2862
09-Sep-2020 10:49:34.068,-0.2990, 0.5984, 0.6619,-0.3328, 1.3601, 1.2957,-2.6405,-0.7351, 2.2698
09-Sep-2020 10:49:34.078,-0.2718, 0.6000, 0.6470,-0.1808, 1.2716, 1.4919,-2.6387,-0.7385, 2.2523
09-Sep-2020 10:49:34.088,-0.2608, 0.5931, 0.6476, 0.0025, 1.1336, 1.7082,-2.6389,-0.7442, 2.2334
09-Sep-2020 10:49:34.098,-0.2222, 0.5764, 0.6493, 0.1748, 0.9582, 1.9406,-2.6415,-0.7525, 2.2130
09-Sep-2020 10:49:34.108,-0.1689, 0.5822, 0.6726, 0.3015, 0.8095, 2.2184,-2.6474,-0.7633, 2.1906
09-Sep-2020 10:49:34.118,-0.1229, 0.5732, 0.7569, 0.3487, 0.7817, 2.5686,-2.6568,-0.7763, 2.1653
09-Sep-2020 10:49:34.128,-0.1229, 0.5592, 0.7531, 0.3813, 0.6632, 2.9470,-2.6702,-0.7913, 2.1354
09-Sep-2020 10:49:34.138,-0.1273, 0.5668, 0.7434, 0.3622, 0.5142, 3.3514,-2.6890,-0.8078, 2.1001
09-Sep-2020 10:49:34.148,-0.1460, 0.6656, 0.7232, 0.3082, 0.3687, 3.6681,-2.7144,-0.8253, 2.0582
09-Sep-2020 10:49:34.158,-0.1455, 0.7715, 0.7085, 0.2008, 0.2778, 3.8569,-2.7462,-0.8427, 2.0102
09-Sep-2020 10:49:34.168,-0.1555, 0.8390, 0.7071, 0.0676, 0.2883, 3.9080,-2.7832,-0.8587, 1.9573
09-Sep-2020 10:49:34.178,-0.1429, 0.8556, 0.6977,-0.0473, 0.3621, 3.8573,-2.8231,-0.8723, 1.9010
09-Sep-2020 10:49:34.187,-0.0878, 0.8157, 0.6732,-0.1607, 0.3476, 3.7464,-2.8640,-0.8832, 1.8434
09-Sep-2020 10:49:34.197,-0.0226, 0.7472, 0.6397,-0.2917, 0.2985, 3.5821,-2.9054,-0.8911, 1.7856
09-Sep-2020 10:49:34.207, 0.0124, 0.7232, 0.5913,-0.4232, 0.2001, 3.4137,-2.9466,-0.8960, 1.7289
09-Sep-2020 10:49:34.218, 0.0543, 0.7122, 0.5815,-0.5519, 0.0878, 3.3295,-2.9876,-0.8978, 1.6739
09-Sep-2020 10:49:34.227, 0.0530, 0.7105, 0.6044,-0.6483, 0.0505, 3.3636,-3.0289,-0.8968, 1.6199
09-Sep-2020 10:49:34.237, 0.0590, 0.7190, 0.6195,-0.6577, 0.0132, 3.5251,-3.0710,-0.8935, 1.5654
09-Sep-2020 10:49:34.247, 0.0614, 0.7151, 0.6180,-0.5496,-0.0655, 3.7601,-3.1148,-0.8888, 1.5089
09-Sep-2020 10:49:34.257,-0.2205, 0.8546, 0.7518,-0.4840, 0.1509, 3.5593, 3.1219,-0.8835, 1.4497
09-Sep-2020 10:49:34.268, 0.0016, 0.8180, 0.8525,-0.5120, 0.3367, 3.7227, 3.0797,-0.8771, 1.3932
09-Sep-2020 10:49:34.277, 0.0506, 0.6821, 0.6588,-0.4474, 0.2541, 3.6643, 3.0396,-0.8692, 1.3368
09-Sep-2020 10:49:34.287, 0.1044, 0.7470, 0.7390,-0.5434, 0.2623, 3.6802, 3.0002,-0.8602, 1.2816
09-Sep-2020 10:49:34.297, 0.3140, 0.6407, 0.7357,-0.6536, 0.2051, 3.8111, 2.9621,-0.8490, 1.2277
09-Sep-2020 10:49:34.307, 0.5455, 0.5014, 0.5867,-0.7181,-0.2639, 4.1712, 2.9232,-0.8352, 1.1734
09-Sep-2020 10:49:34.317, 0.5294, 0.6094, 0.6810,-0.7709,-0.5776, 4.3497, 2.8800,-0.8182, 1.1167
09-Sep-2020 10:49:34.327, 0.4793, 0.8042, 0.5371,-0.6352,-0.7506, 4.0145, 2.8338,-0.7988, 1.0600
09-Sep-2020 10:49:34.337, 0.4021, 0.7659, 0.9445,-0.7565,-0.4585, 3.7703, 2.7898,-0.7796, 1.0088
09-Sep-2020 10:49:34.347, 0.2676, 0.8488, 0.8082,-0.6320,-0.1435, 3.1270, 2.7542,-0.7593, 0.9641
09-Sep-2020 10:49:34.357, 0.2778, 0.9477, 0.7811,-0.4590,-0.1569, 2.1882, 2.7282,-0.7416, 0.9286
09-Sep-2020 10:49:34.367, 0.3503, 0.7438, 0.7979,-0.3702,-0.1013, 1.6418, 2.7103,-0.7283, 0.9039
09-Sep-2020 10:49:34.377, 0.3979, 0.6395, 0.7233,-0.2043,-0.2724, 1.4276, 2.6972,-0.7180, 0.8859
09-Sep-2020 10:49:34.387, 0.4552, 0.5835, 0.6785,-0.0677,-0.5891, 1.4678, 2.6839,-0.7099, 0.8698
09-Sep-2020 10:49:34.396, 0.4843, 0.5853, 0.7036,-0.0154,-0.9011, 1.6254, 2.6670,-0.7027, 0.8529
09-Sep-2020 10:49:34.406, 0.4962, 0.5975, 0.7196,-0.0106,-1.1098, 1.8064, 2.6460,-0.6950, 0.8342
09-Sep-2020 10:49:34.416, 0.4353, 0.4534, 0.7987,-0.1477,-1.0383, 2.2674, 2.6221,-0.6858, 0.8135
09-Sep-2020 10:49:34.427, 0.3755, 0.4233, 0.7585,-0.3092,-0.8638, 2.5166, 2.5969,-0.6732, 0.7895
09-Sep-2020 10:49:34.436, 0.3232, 0.4418, 0.6940,-0.4606,-0.8639, 2.5865, 2.5727,-0.6574, 0.7646
09-Sep-2020 10:49:34.447, 0.3371, 0.5097, 0.6894,-0.5824,-0.9314, 2.4895, 2.5496,-0.6395, 0.7407
09-Sep-2020 10:49:34.456, 0.4160, 0.7354, 0.8167,-0.4208,-0.7524, 1.8461, 2.5291,-0.6213, 0.7198
09-Sep-2020 10:49:34.466, 0.4149, 0.6637, 0.5653,-0.3961,-1.0430, 1.5650, 2.5124,-0.6069, 0.7042
09-Sep-2020 10:49:34.477, 0.4501, 0.5873, 0.8125,-0.2929,-0.8472, 1.4063, 2.4952,-0.5945, 0.6917
09-Sep-2020 10:49:34.486, 0.4223, 0.6029, 0.7409, 0.0007,-0.8274, 1.1611, 2.4803,-0.5838, 0.6803
09-Sep-2020 10:49:34.496, 0.4539, 0.6149, 0.7404, 0.2392,-0.8811, 1.0400, 2.4660,-0.5765, 0.6693
09-Sep-2020 10:49:34.506, 0.5321, 0.5726, 0.7046, 0.4236,-1.0182, 1.0838, 2.4509,-0.5717, 0.6578
09-Sep-2020 10:49:34.516, 0.6408, 0.5247, 0.6489, 0.5291,-1.2416, 1.2009, 2.4336,-0.5679, 0.6447
09-Sep-2020 10:49:34.526, 0.6653, 0.5332, 0.6296, 0.4848,-1.4416, 1.2957, 2.4133,-0.5640, 0.6299
09-Sep-2020 10:49:34.536, 0.6176, 0.4977, 0.6181, 0.3429,-1.5410, 1.3996, 2.3910,-0.5588, 0.6148
09-Sep-2020 10:49:34.546, 0.5780, 0.4281, 0.6613, 0.1367,-1.4648, 1.5275, 2.3680,-0.5515, 0.6001
09-Sep-2020 10:49:34.556, 0.5416, 0.3809, 0.6648,-0.0318,-1.4083, 1.5808, 2.3462,-0.5418, 0.5863
09-Sep-2020 10:49:34.566, 0.5396, 0.3707, 0.6507,-0.1474,-1.3790, 1.5485, 2.3258,-0.5303, 0.5738
09-Sep-2020 10:49:34.576, 0.5811, 0.3538, 0.7028,-0.2617,-1.3633, 1.4665, 2.3066,-0.5179, 0.5629
09-Sep-2020 10:49:34.586, 0.6324, 0.3760, 0.6799,-0.3283,-1.4223, 1.4311, 2.2885,-0.5053, 0.5539
09-Sep-2020 10:49:34.596, 0.7023, 0.5133, 0.7372,-0.3617,-1.3508, 1.4054, 2.2710,-0.4923, 0.5460
09-Sep-2020 10:49:34.606, 0.7409, 0.5452, 0.5822,-0.3743,-1.6056, 1.4998, 2.2538,-0.4792, 0.5389
09-Sep-2020 10:49:34.615, 0.6975, 0.5095, 0.6350,-0.5011,-1.6979, 1.5290, 2.2346,-0.4651, 0.5318
09-Sep-2020 10:49:34.625, 0.6449, 0.4554, 0.6396,-0.5368,-1.7385, 1.4226, 2.2151,-0.4501, 0.5258
09-Sep-2020 10:49:34.636, 0.6857, 0.4370, 0.6156,-0.5593,-1.6603, 1.2761, 2.1959,-0.4355, 0.5212
09-Sep-2020 10:49:34.645, 0.8473, 0.3887, 0.5768,-0.4792,-1.4397, 1.2795, 2.1780,-0.4218, 0.5179
09-Sep-2020 10:49:34.655, 0.9828, 0.3611, 0.5221,-0.3165,-1.1546, 1.4334, 2.1622,-0.4085, 0.5142
09-Sep-2020 10:49:34.665, 0.8654, 0.3388, 0.4750,-0.1518,-0.9641, 1.4326, 2.1484,-0.3949, 0.5085
09-Sep-2020 10:49:34.675, 0.6964, 0.2921, 0.4870,-0.0878,-0.9120, 1.2777, 2.1361,-0.3821, 0.5016
09-Sep-2020 10:49:34.686, 0.6946, 0.2585, 0.5215,-0.1496,-0.9871, 1.1498, 2.1245,-0.3708, 0.4951
09-Sep-2020 10:49:34.695, 0.7521, 0.2324, 0.5786,-0.3026,-1.1726, 1.1100, 2.1128,-0.3601, 0.4900
09-Sep-2020 10:49:34.705, 0.7894, 0.2186, 0.5952,-0.4840,-1.4594, 1.1044, 2.0999,-0.3490, 0.4867
09-Sep-2020 10:49:34.715, 0.8169, 0.2216, 0.5601,-0.6245,-1.6509, 1.1079, 2.0849,-0.3370, 0.4852
09-Sep-2020 10:49:34.725, 0.8637, 0.1994, 0.5292,-0.6681,-1.6767, 1.1425, 2.0686,-0.3243, 0.4851
09-Sep-2020 10:49:34.735, 0.8810, 0.1575, 0.4901,-0.6167,-1.6363, 1.1518, 2.0520,-0.3112, 0.4856
09-Sep-2020 10:49:34.746, 0.8456, 0.1178, 0.4339,-0.4981,-1.5806, 1.1466, 2.0358,-0.2981, 0.4857
09-Sep-2020 10:49:34.755, 0.8117, 0.1063, 0.4186,-0.3823,-1.5976, 1.1659, 2.0198,-0.2856, 0.4850
09-Sep-2020 10:49:34.765, 0.8421, 0.1042, 0.4695,-0.3677,-1.6240, 1.2448, 2.0035,-0.2734, 0.4835
09-Sep-2020 10:49:34.775, 0.8451, 0.0574, 0.4834,-0.3561,-1.7409, 1.2769, 1.9866,-0.2606, 0.4816
09-Sep-2020 10:49:34.785, 0.6373, 0.0555, 0.3961,-0.2688,-1.7443, 1.0389, 1.9689,-0.2477, 0.4797
09-Sep-2020 10:49:34.795, 0.5517, 0.0203, 0.4164,-0.1768,-1.5285, 0.7214, 1.9513,-0.2371, 0.4782
09-Sep-2020 10:49:34.804, 0.6310, 0.0007, 0.4022,-0.0327,-1.3494, 0.4443, 1.9358,-0.2297, 0.4770
09-Sep-2020 10:49:34.814, 0.6950, 0.0281, 0.3838, 0.1345,-1.1613, 0.2270, 1.9220,-0.2253, 0.4757
09-Sep-2020 10:49:34.824, 0.7255, 0.0555, 0.3783, 0.3062,-0.9810, 0.0833, 1.9100,-0.2236, 0.4735
09-Sep-2020 10:49:34.834, 0.7232, 0.1053, 0.3763, 0.4631,-0.8624, 0.0162, 1.8994,-0.2237, 0.4702
09-Sep-2020 10:49:34.845, 0.7001, 0.1512, 0.3627, 0.5805,-0.9075, 0.0268, 1.8897,-0.2249, 0.4656
09-Sep-2020 10:49:34.854, 0.6716, 0.1720, 0.3445, 0.6436,-1.1608, 0.1408, 1.8793,-0.2263, 0.4599
09-Sep-2020 10:49:34.864, 0.6461, 0.1843, 0.3462, 0.6103,-1.5455, 0.3379, 1.8661,-0.2267, 0.4531
09-Sep-2020 10:49:34.874, 0.6309, 0.1854, 0.3472, 0.4858,-2.0674, 0.5474, 1.8490,-0.2251, 0.4462
09-Sep-2020 10:49:34.884, 0.6465, 0.1612, 0.4020, 0.3071,-2.4678, 0.7444, 1.8272,-0.2211, 0.4399
09-Sep-2020 10:49:34.894, 0.6854, 0.1566, 0.4540, 0.1080,-2.7534, 0.8746, 1.8016,-0.2146, 0.4350
09-Sep-2020 10:49:34.904, 0.7383, 0.1836, 0.4863,-0.1169,-2.9556, 0.9228, 1.7736,-0.2063, 0.4320
09-Sep-2020 10:49:34.914, 0.7797, 0.2150, 0.5081,-0.3762,-3.0769, 0.8787, 1.7441,-0.1971, 0.4314
09-Sep-2020 10:49:34.924, 0.8129, 0.2625, 0.5119,-0.6413,-3.1511, 0.7236, 1.7140,-0.1879, 0.4338
09-Sep-2020 10:49:34.934, 1.1165, 0.3981, 0.3437,-0.6643,-3.2255, 0.8533, 1.6834,-0.1796, 0.4390
09-Sep-2020 10:49:34.944, 0.9935, 0.3403, 0.3429,-0.7523,-3.1252, 0.8929, 1.6525,-0.1707, 0.4449
09-Sep-2020 10:49:34.954, 1.2365, 0.3949, 0.0252,-0.6132,-3.4815, 1.0549, 1.6216,-0.1611, 0.4515
09-Sep-2020 10:49:34.964, 1.1548, 0.2469, 0.2243,-0.6356,-3.0703, 1.3652, 1.5884,-0.1502, 0.4575
09-Sep-2020 10:49:34.974, 1.1397, 0.0537, 0.1777,-0.7010,-3.0102, 1.5818, 1.5584,-0.1367, 0.4638
09-Sep-2020 10:49:34.984, 1.2508,-0.0685, 0.0723,-0.7276,-3.0436, 1.7314, 1.5293,-0.1211, 0.4712
09-Sep-2020 10:49:34.994, 1.1712,-0.0584, 0.0015,-0.7001,-2.9589, 1.7109, 1.5000,-0.1043, 0.4794
09-Sep-2020 10:49:35.004, 1.0465, 0.0096, 0.0025,-0.5832,-2.4480, 1.4970, 1.4716,-0.0879, 0.4877
09-Sep-2020 10:49:35.013, 0.9157, 0.1067,-0.0213,-0.3638,-1.7113, 1.0561, 1.4480,-0.0739, 0.4951
09-Sep-2020 10:49:35.024, 0.7829, 0.1430,-0.0280,-0.0187,-0.8183, 0.4536, 1.4314,-0.0639, 0.4999
09-Sep-2020 10:49:35.033, 0.3357, 0.2184,-0.0602, 0.3795, 0.2664,-0.4266, 1.4235,-0.0595, 0.5007
09-Sep-2020 10:49:35.043, 0.2260, 0.1568,-0.2475, 0.9769, 1.3741,-1.2410, 1.4260,-0.0629, 0.4962
09-Sep-2020 10:49:35.054, 0.7059, 0.0998,-0.1856, 1.4743, 1.7200,-1.5579, 1.4382,-0.0735, 0.4849
09-Sep-2020 10:49:35.063, 0.7902, 0.1461, 0.0322, 1.8317, 1.4256,-1.5472, 1.4535,-0.0867, 0.4685
09-Sep-2020 10:49:35.073, 0.6991, 0.2363, 0.0894, 2.2842, 0.9805,-1.4216, 1.4658,-0.0999, 0.4484
09-Sep-2020 10:49:35.083, 0.6907, 0.3489, 0.0185, 2.7010, 0.4488,-1.3047, 1.4729,-0.1116, 0.4242
09-Sep-2020 10:49:35.093, 0.7025, 0.3903,-0.0504, 2.9915,-0.0883,-1.3068, 1.4741,-0.1219, 0.3961
09-Sep-2020 10:49:35.104, 0.5579, 0.4444,-0.0700, 3.1198,-0.5642,-1.4919, 1.4692,-0.1320, 0.3650
09-Sep-2020 10:49:35.113, 0.4658, 0.5193, 0.0008, 3.0804,-1.0318,-1.7094, 1.4591,-0.1434, 0.3323
09-Sep-2020 10:49:35.123, 0.5010, 0.5575, 0.0786, 2.9331,-1.4023,-1.8358, 1.4440,-0.1565, 0.2995
09-Sep-2020 10:49:35.133, 0.5440, 0.5041, 0.1767, 2.6948,-1.6168,-1.8550, 1.4250,-0.1705, 0.2678
09-Sep-2020 10:49:35.143, 0.4944, 0.3286, 0.2742, 2.4365,-1.4780,-1.7416, 1.4039,-0.1844, 0.2379
09-Sep-2020 10:49:35.153, 0.4394, 0.2189, 0.2463, 2.2431,-1.1311,-1.5592, 1.3840,-0.1971, 0.2105
09-Sep-2020 10:49:35.163, 0.4363, 0.2894, 0.1470, 2.1676,-0.7717,-1.4544, 1.3676,-0.2080, 0.1849
09-Sep-2020 10:49:35.173, 0.5014, 0.3845, 0.0443, 2.2414,-0.3666,-1.3322, 1.3547,-0.2175, 0.1602
09-Sep-2020 10:49:35.183, 0.8451, 0.4652,-0.0727, 2.3690,-0.2001,-1.0958, 1.3457,-0.2253, 0.1348
09-Sep-2020 10:49:35.193, 1.1174, 0.6691,-0.2581, 2.4244,-0.4696,-1.2460, 1.3372,-0.2311, 0.1087
09-Sep-2020 10:49:35.203, 0.7344, 0.7572,-0.2836, 2.7391,-0.6260,-1.5903, 1.3259,-0.2375, 0.0814
09-Sep-2020 10:49:35.213, 0.7298, 0.9737,-0.5510, 3.2174,-1.1402,-2.1855, 1.3119,-0.2460, 0.0500
09-Sep-2020 10:49:35.223, 0.7939, 0.9393,-0.5500, 3.5992,-1.8658,-2.7762, 1.2910,-0.2584, 0.0122
09-Sep-2020 10:49:35.232, 0.9737, 0.7703,-0.5876, 3.8229,-2.8416,-3.1122, 1.2607,-0.2743,-0.0315
09-Sep-2020 10:49:35.242, 1.1256, 0.5573,-0.6372, 3.9597,-3.3557,-3.1376, 1.2193,-0.2910,-0.0793
09-Sep-2020 10:49:35.252, 1.1065, 0.4152,-0.7597, 3.9864,-2.9981,-3.0086, 1.1717,-0.3054,-0.1295
09-Sep-2020 10:49:35.262, 1.0361, 0.3720,-0.7861, 3.6016,-1.5791,-2.8810, 1.1268,-0.3165,-0.1803
09-Sep-2020 10:49:35.272, 0.9704, 0.4350,-0.4475, 2.0100, 1.7865,-2.8727, 1.0983,-0.3267,-0.2266
09-Sep-2020 10:49:35.282, 0.9502, 0.5660,-0.5855, 1.2643, 3.0134,-2.9402, 1.1033,-0.3427,-0.2600
09-Sep-2020 10:49:35.292, 1.0159, 0.5569,-0.8015, 1.2559, 2.3370,-3.0774, 1.1230,-0.3632,-0.2862
09-Sep-2020 10:49:35.302, 1.1893, 0.5548,-0.8889, 1.4811, 1.2539,-3.1355, 1.1364,-0.3854,-0.3125
09-Sep-2020 10:49:35.312, 1.4167, 0.5714,-0.9320, 1.8282, 0.3395,-3.0015, 1.1379,-0.4073,-0.3413
09-Sep-2020 10:49:35.322, 1.4977, 0.5111,-0.9602, 2.0996,-0.2024,-2.7464, 1.1287,-0.4265,-0.3730
09-Sep-2020 10:49:35.332, 1.4565, 0.4322,-0.9322, 2.1206,-0.1938,-2.4763, 1.1128,-0.4420,-0.4067
09-Sep-2020 10:49:35.342, 1.3886, 0.3793,-0.9152, 2.0059,-0.0696,-2.2600, 1.0966,-0.4545,-0.4399
09-Sep-2020 10:49:35.352, 1.3665, 0.3955,-0.8703, 1.9352,-0.3150,-2.1172, 1.0817,-0.4652,-0.4713
09-Sep-2020 10:49:35.362, 1.3817, 0.4280,-0.7972, 1.8875,-0.8955,-1.9948, 1.0646,-0.4744,-0.5015
09-Sep-2020 10:49:35.372, 1.3897, 0.3801,-0.6970, 1.7275,-1.4856,-1.8301, 1.0422,-0.4823,-0.5309
09-Sep-2020 10:49:35.382, 1.3773, 0.2779,-0.5951, 1.4395,-1.8732,-1.5928, 1.0149,-0.4890,-0.5580
09-Sep-2020 10:49:35.392, 1.3669, 0.2060,-0.5255, 1.0557,-2.0223,-1.3197, 0.9854,-0.4945,-0.5813
09-Sep-2020 10:49:35.402, 1.3656, 0.1965,-0.5282, 0.6925,-2.0777,-1.0712, 0.9566,-0.4994,-0.5997
09-Sep-2020 10:49:35.412, 1.3743, 0.2319,-0.5746, 0.4061,-2.1857,-0.8554, 0.9293,-0.5039,-0.6132
09-Sep-2020 10:49:35.422, 1.3392, 0.2861,-0.6394, 0.2120,-2.4159,-0.7211, 0.9028,-0.5081,-0.6228
09-Sep-2020 10:49:35.432, 1.2673, 0.3385,-0.6902, 0.1015,-2.6734,-0.6403, 0.8753,-0.5122,-0.6299
09-Sep-2020 10:49:35.442, 1.2081, 0.3778,-0.6776, 0.0611,-2.7708,-0.5511, 0.8460,-0.5163,-0.6356
09-Sep-2020 10:49:35.452, 1.1964, 0.3980,-0.6519, 0.1201,-2.6343,-0.3872, 0.8162,-0.5198,-0.6403
09-Sep-2020 10:49:35.462, 1.1909, 0.4011,-0.6645, 0.2919,-2.3563,-0.1559, 0.7880,-0.5216,-0.6444
09-Sep-2020 10:49:35.472, 1.1973, 0.4104,-0.6836, 0.5632,-2.0209, 0.1353, 0.7628,-0.5204,-0.6480
09-Sep-2020 10:49:35.481, 1.2044, 0.4577,-0.6774, 0.8645,-1.6849, 0.4275, 0.7411,-0.5153,-0.6512
09-Sep-2020 10:49:35.492, 1.2001, 0.4925,-0.6925, 1.1454,-1.4714, 0.6990, 0.7228,-0.5060,-0.6541
09-Sep-2020 10:49:35.501, 1.1822, 0.5101,-0.6969, 1.3259,-1.3864, 0.9302, 0.7069,-0.4928,-0.6566
09-Sep-2020 10:49:35.511, 1.1335, 0.5092,-0.7250, 1.3815,-1.4718, 1.0874, 0.6922,-0.4768,-0.6581
09-Sep-2020 10:49:35.521, 1.0415, 0.5042,-0.7286, 1.3097,-1.5823, 1.1433, 0.6774,-0.4593,-0.6584
09-Sep-2020 10:49:35.531, 0.9272, 0.4779,-0.6721, 1.1162,-1.5955, 1.1141, 0.6621,-0.4421,-0.6575
09-Sep-2020 10:49:35.541, 0.8204, 0.4436,-0.6161, 0.8547,-1.6020, 1.0347, 0.6472,-0.4265,-0.6552
09-Sep-2020 10:49:35.551, 0.7341, 0.4460,-0.5746, 0.6137,-1.6435, 0.9228, 0.6326,-0.4134,-0.6517
09-Sep-2020 10:49:35.561, 0.6857, 0.4635,-0.5335, 0.4351,-1.5911, 0.8134, 0.6180,-0.4030,-0.6475
09-Sep-2020 10:49:35.571, 0.6285, 0.5159,-0.5664, 0.3992,-1.5742, 0.6980, 0.6038,-0.3947,-0.6430
09-Sep-2020 10:49:35.581, 0.5751, 0.5748,-0.6534, 0.5160,-1.6152, 0.5968, 0.5896,-0.3874,-0.6393
09-Sep-2020 10:49:35.591, 0.5994, 0.6119,-0.7417, 0.7674,-1.6574, 0.5696, 0.5744,-0.3796,-0.6369
09-Sep-2020 10:49:35.601, 0.5881, 0.6209,-0.8770, 1.1572,-1.6405, 0.5822, 0.5582,-0.3700,-0.6362
09-Sep-2020 10:49:35.611, 0.4927, 0.5940,-0.8026, 1.4976,-1.2388, 0.5828, 0.5417,-0.3571,-0.6373
09-Sep-2020 10:49:35.621, 0.5530, 0.5341,-0.9125, 1.8679,-1.2129, 0.7026, 0.5281,-0.3411,-0.6399
09-Sep-2020 10:49:35.631, 0.4462, 0.5278,-0.9616, 2.2135,-1.0737, 0.6710, 0.5151,-0.3216,-0.6433
09-Sep-2020 10:49:35.640, 0.2827, 0.4901,-0.7812, 2.4273,-0.5818, 0.4872, 0.5030,-0.2991,-0.6485
09-Sep-2020 10:49:35.650, 0.2025, 0.4124,-0.6430, 2.4572,-0.0268, 0.2171, 0.4951,-0.2756,-0.6560
09-Sep-2020 10:49:35.660, 0.1440, 0.3277,-0.5349, 2.3278, 0.4612,-0.1195, 0.4923,-0.2532,-0.6660
09-Sep-2020 10:49:35.671, 0.2385, 0.2863,-0.6490, 2.2048, 0.5170,-0.4123, 0.4936,-0.2332,-0.6784
09-Sep-2020 10:49:35.680, 0.3315, 0.2620,-0.6688, 2.0365, 0.6673,-0.6301, 0.4957,-0.2158,-0.6926
09-Sep-2020 10:49:35.690, 0.3419, 0.2280,-0.6620, 1.8885, 0.8894,-0.8344, 0.4992,-0.2009,-0.7081
09-Sep-2020 10:49:35.700, 0.3708, 0.2292,-0.7012, 1.8648, 0.9773,-1.0120, 0.5048,-0.1883,-0.7247
09-Sep-2020 10:49:35.710, 0.4623, 0.2393,-0.8188, 1.9088, 0.8331,-1.1253, 0.5110,-0.1769,-0.7428
09-Sep-2020 10:49:35.721, 0.5054, 0.1794,-0.8073, 1.8093, 0.6712,-1.1153, 0.5160,-0.1658,-0.7620
09-Sep-2020 10:49:35.730, 0.4519, 0.0978,-0.7174, 1.4865, 0.4743,-1.0755, 0.5196,-0.1557,-0.7806
09-Sep-2020 10:49:35.740, 0.3552, 0.1841,-0.4976, 1.1586, 0.6413,-1.1417, 0.5220,-0.1481,-0.7975
09-Sep-2020 10:49:35.750, 0.2268, 0.2428,-0.3275, 0.8974, 0.9619,-1.3728, 0.5262,-0.1438,-0.8133
09-Sep-2020 10:49:35.760, 0.2559, 0.1603,-0.2999, 0.6910, 1.4628,-1.5630, 0.5336,-0.1429,-0.8297
09-Sep-2020 10:49:35.770, 0.4478,-0.0307,-0.1623, 0.4650, 2.2089,-1.5719, 0.5459,-0.1449,-0.8466
09-Sep-2020 10:49:35.780, 0.6197,-0.1002,-0.2943, 0.3437, 2.6727,-1.4654, 0.5653,-0.1490,-0.8624
09-Sep-2020 10:49:35.790, 0.7147,-0.0365,-0.3935, 0.1689, 2.8657,-1.3739, 0.5896,-0.1541,-0.8766
09-Sep-2020 10:49:35.800, 0.7374, 0.0564,-0.4285,-0.1251, 2.8326,-1.3411, 0.6161,-0.1605,-0.8889
09-Sep-2020 10:49:35.809, 0.6724, 0.1364,-0.4938,-0.4879, 2.5014,-1.3875, 0.6424,-0.1693,-0.8991
09-Sep-2020 10:49:35.820, 0.5774, 0.2024,-0.5617,-0.8344, 1.9963,-1.5179, 0.6658,-0.1815,-0.9072
09-Sep-2020 10:49:35.830, 0.5270, 0.2542,-0.5760,-1.1071, 1.5805,-1.6874, 0.6845,-0.1973,-0.9139
09-Sep-2020 10:49:35.840, 0.5249, 0.2832,-0.5646,-1.2498, 1.3891,-1.8611, 0.6991,-0.2164,-0.9199
09-Sep-2020 10:49:35.850, 0.6092, 0.2634,-0.6345,-1.2022, 1.3426,-1.9606, 0.7116,-0.2377,-0.9262
09-Sep-2020 10:49:35.859, 0.7146, 0.2406,-0.7184,-1.0468, 1.3807,-1.9048, 0.7233,-0.2593,-0.9331
09-Sep-2020 10:49:35.869, 0.7446, 0.2690,-0.7708,-0.8769, 1.4545,-1.7883, 0.7351,-0.2796,-0.9405
09-Sep-2020 10:49:35.880, 0.7905, 0.3022,-0.7805,-0.6903, 1.6212,-1.6361, 0.7475,-0.2980,-0.9481
09-Sep-2020 10:49:35.889, 0.8457, 0.3014,-0.7670,-0.4005, 1.9001,-1.4339, 0.7614,-0.3140,-0.9556
09-Sep-2020 10:49:35.899, 0.8044, 0.3002,-0.8345,-0.0269, 1.9842,-1.2581, 0.7777,-0.3267,-0.9635
09-Sep-2020 10:49:35.909, 0.7337, 0.3124,-0.8834, 0.2939, 1.7504,-1.1446, 0.7943,-0.3357,-0.9726
09-Sep-2020 10:49:35.919, 0.6816, 0.3498,-0.7959, 0.3775, 1.3410,-1.0906, 0.8081,-0.3419,-0.9831
09-Sep-2020 10:49:35.929, 0.6022, 0.3702,-0.5745, 0.1914, 0.9260,-1.1162, 0.8178,-0.3473,-0.9938
09-Sep-2020 10:49:35.939, 0.4937, 0.3822,-0.4245,-0.0842, 0.5734,-1.2088, 0.8238,-0.3541,-1.0033
09-Sep-2020 10:49:35.949, 0.3604, 0.3937,-0.5437,-0.2794, 0.0644,-1.3366, 0.8265,-0.3635,-1.0114
09-Sep-2020 10:49:35.959, 0.5088, 0.3055,-0.6446,-0.5204,-0.2823,-1.1168, 0.8248,-0.3750,-1.0186
09-Sep-2020 10:49:35.969, 0.6069, 0.2757,-0.5448,-0.7077,-0.3599,-0.8163, 0.8206,-0.3865,-1.0226
09-Sep-2020 10:49:35.979, 0.5993, 0.3040,-0.5991,-0.7264,-0.5105,-0.6263, 0.8168,-0.3971,-1.0232
09-Sep-2020 10:49:35.989, 0.6045, 0.3742,-0.6623,-0.6302,-0.6453,-0.5607, 0.8120,-0.4066,-1.0222
09-Sep-2020 10:49:35.999, 0.6247, 0.4615,-0.6433,-0.5015,-0.5003,-0.5174, 0.8061,-0.4148,-1.0214
09-Sep-2020 10:49:36.009, 0.6445, 0.4835,-0.5254,-0.4172,-0.3162,-0.4183, 0.8012,-0.4219,-1.0213
09-Sep-2020 10:49:36.019, 0.5960, 0.4560,-0.4008,-0.4278,-0.2371,-0.3407, 0.7980,-0.4278,-1.0212
09-Sep-2020 10:49:36.029, 0.5088, 0.4080,-0.2610,-0.5895,-0.1401,-0.3731, 0.7960,-0.4332,-1.0204
09-Sep-2020 10:49:36.039, 0.4956, 0.4631,-0.1154,-1.1002, 0.0053,-0.4378, 0.7953,-0.4400,-1.0185
09-Sep-2020 10:49:36.049, 0.4311, 0.5139,-0.0186,-1.8955, 0.4105,-0.4092, 0.7981,-0.4508,-1.0130
09-Sep-2020 10:49:36.059, 0.3017, 0.4461,-0.4056,-2.3843, 0.2667,-0.3862, 0.8070,-0.4666,-1.0012
09-Sep-2020 10:49:36.069, 0.2476, 0.4143,-0.4227,-2.6850, 0.2571,-0.4219, 0.8172,-0.4856,-0.9848
09-Sep-2020 10:49:36.079, 0.2366, 0.4689,-0.2687,-2.9361, 0.7303,-0.6277, 0.8291,-0.5068,-0.9659
09-Sep-2020 10:49:36.089, 0.2421, 0.5489,-0.1107,-3.2439, 1.4327,-1.0200, 0.8465,-0.5311,-0.9457
09-Sep-2020 10:49:36.098, 0.3303, 0.5523,-0.8625,-2.4119, 1.4381,-1.3752, 0.8702,-0.5589,-0.9259
09-Sep-2020 10:49:36.108, 0.4632, 0.6346,-0.8316,-1.6015, 1.3488,-1.6720, 0.8911,-0.5849,-0.9139
09-Sep-2020 10:49:36.118, 0.5478, 0.7106,-0.6931,-0.7496, 1.2756,-1.8799, 0.9061,-0.6078,-0.9113
09-Sep-2020 10:49:36.128, 0.4847, 0.7253,-0.5152,-0.2041, 0.9814,-2.0570, 0.9148,-0.6272,-0.9179
09-Sep-2020 10:49:36.139, 0.4524, 0.7338,-0.3998,-0.0270, 0.6080,-2.1987, 0.9166,-0.6447,-0.9311
09-Sep-2020 10:49:36.148, 0.4777, 0.7092,-0.2902,-0.1664, 0.5045,-2.3342, 0.9129,-0.6623,-0.9475
09-Sep-2020 10:49:36.158, 0.5521, 0.6666,-0.1972,-0.4844, 0.6538,-2.4917, 0.9079,-0.6816,-0.9639
09-Sep-2020 10:49:36.168, 0.6486, 0.6353,-0.2009,-0.8485, 0.8326,-2.6510, 0.9049,-0.7041,-0.9788
09-Sep-2020 10:49:36.178, 0.7256, 0.6297,-0.2880,-1.1631, 0.8550,-2.7469, 0.9047,-0.7299,-0.9915
09-Sep-2020 10:49:36.188, 0.7811, 0.6593,-0.4382,-1.2882, 0.8548,-2.6813, 0.9060,-0.7583,-1.0021
09-Sep-2020 10:49:36.198, 0.8063, 0.6964,-0.5668,-1.2485, 0.8302,-2.4614, 0.9083,-0.7870,-1.0109
09-Sep-2020 10:49:36.208, 0.7973, 0.7546,-0.6003,-1.1150, 0.7931,-2.1530, 0.9112,-0.8139,-1.0184
09-Sep-2020 10:49:36.218, 0.8049, 0.8239,-0.5013,-1.0098, 0.7143,-1.9241, 0.9144,-0.8376,-1.0248
09-Sep-2020 10:49:36.228, 0.8579, 0.8872,-0.3773,-1.0062, 0.6027,-1.7189, 0.9173,-0.8589,-1.0303
09-Sep-2020 10:49:36.238, 0.9236, 0.9547,-0.3024,-1.0548, 0.5786,-1.4062, 0.9206,-0.8784,-1.0339
09-Sep-2020 10:49:36.248, 0.9404, 1.0013,-0.3274,-1.0385, 0.4902,-0.9968, 0.9263,-0.8957,-1.0340
09-Sep-2020 10:49:36.258, 0.9433, 0.9695,-0.3987,-0.8867, 0.2306,-0.5531, 0.9340,-0.9097,-1.0302
09-Sep-2020 10:49:36.267, 0.7787, 0.8794,-0.4180,-0.6147,-0.0832,-0.3894, 0.9410,-0.9194,-1.0242
09-Sep-2020 10:49:36.278, 0.6791, 0.8551,-0.3219,-0.4402,-0.3409,-0.4555, 0.9437,-0.9262,-1.0198
09-Sep-2020 10:49:36.288, 0.6299, 0.8683,-0.2342,-0.4382,-0.4930,-0.6385, 0.9417,-0.9325,-1.0182
09-Sep-2020 10:49:36.297, 0.5585, 0.8235,-0.1593,-0.5779,-0.5748,-0.8534, 0.9366,-0.9402,-1.0184
09-Sep-2020 10:49:36.308, 0.5080, 0.7750,-0.1513,-0.6998,-0.5601,-0.9252, 0.9305,-0.9503,-1.0190
09-Sep-2020 10:49:36.318, 0.4405, 0.8331,-0.1771,-0.7037,-0.2687,-0.8924, 0.9253,-0.9617,-1.0189
09-Sep-2020 10:49:36.327, 0.3996, 0.9048,-0.2861,-0.5314, 0.0467,-0.7941, 0.9229,-0.9728,-1.0186
09-Sep-2020 10:49:36.337, 0.4298, 0.9371,-0.3354,-0.3454, 0.2123,-0.7483, 0.9224,-0.9822,-1.0196
09-Sep-2020 10:49:36.348, 0.4329, 0.9555,-0.3076,-0.3184, 0.1782,-0.7599, 0.9218,-0.9903,-1.0226
09-Sep-2020 10:49:36.357, 0.4062, 0.9630,-0.2735,-0.4324, 0.1205,-0.8151, 0.9205,-0.9982,-1.0263
09-Sep-2020 10:49:36.367, 0.3685, 0.9299,-0.2767,-0.5528, 0.1981,-0.8477, 0.9195,-1.0072,-1.0290
09-Sep-2020 10:49:36.377, 0.3584, 0.9255,-0.3171,-0.5822, 0.3651,-0.8287, 0.9204,-1.0171,-1.0303
09-Sep-2020 10:49:36.387, 0.3730, 0.9384,-0.3124,-0.5302, 0.6475,-0.7523, 0.9234,-1.0270,-1.0311
09-Sep-2020 10:49:36.397, 0.3528, 0.9424,-0.2710,-0.4457, 0.8313,-0.6674, 0.9294,-1.0361,-1.0316
09-Sep-2020 10:49:36.407, 0.3780, 0.9324,-0.2381,-0.3959, 0.7753,-0.5844, 0.9370,-1.0440,-1.0323
09-Sep-2020 10:49:36.417, 0.4158, 0.9007,-0.1205,-0.3828, 0.5919,-0.4826, 0.9442,-1.0510,-1.0327
09-Sep-2020 10:49:36.427, 0.3293, 0.8294,-0.0900,-0.3460, 0.3541,-0.4754, 0.9503,-1.0570,-1.0322
09-Sep-2020 10:49:36.437, 0.2684, 0.8066,-0.0334,-0.3055, 0.3184,-0.6046, 0.9541,-1.0629,-1.0322
09-Sep-2020 10:49:36.447, 0.3223, 0.7720,-0.1068,-0.2307, 0.1816,-0.7058, 0.9554,-1.0694,-1.0342
09-Sep-2020 10:49:36.456, 0.3465, 0.8021,-0.1671,-0.1835, 0.2408,-0.8026, 0.9533,-1.0764,-1.0388
09-Sep-2020 10:49:36.467, 0.3954, 0.8628,-0.1658,-0.2576, 0.4160,-0.8292, 0.9501,-1.0839,-1.0452
09-Sep-2020 10:49:36.477, 0.4275, 0.9074,-0.1932,-0.3877, 0.4782,-0.8324, 0.9491,-1.0921,-1.0509
09-Sep-2020 10:49:36.486, 0.4457, 0.9127,-0.2450,-0.5131, 0.3146,-0.8528, 0.9503,-1.1010,-1.0547
09-Sep-2020 10:49:36.497, 0.4623, 0.9070,-0.2419,-0.6165, 0.1459,-0.9020, 0.9519,-1.1108,-1.0564
09-Sep-2020 10:49:36.506, 0.4539, 0.8942,-0.2230,-0.7316, 0.1067,-0.9100, 0.9530,-1.1216,-1.0568
09-Sep-2020 10:49:36.516, 0.3942, 0.9002,-0.2075,-0.8142, 0.2101,-0.7983, 0.9558,-1.1331,-1.0551
09-Sep-2020 10:49:36.526, 0.3451, 0.9227,-0.1669,-0.8697, 0.4018,-0.6409, 0.9625,-1.1441,-1.0501
09-Sep-2020 10:49:36.536, 0.2921, 0.8859,-0.1176,-0.8910, 0.5654,-0.5534, 0.9743,-1.1542,-1.0415
09-Sep-2020 10:49:36.546, 0.2776, 0.8650,-0.0696,-0.9273, 0.6925,-0.5576, 0.9897,-1.1637,-1.0308
09-Sep-2020 10:49:36.556, 0.3091, 0.8725,-0.0492,-1.0081, 0.6104,-0.6040, 1.0077,-1.1733,-1.0186
09-Sep-2020 10:49:36.566, 0.3616, 0.8457,-0.0475,-1.0987, 0.3901,-0.6323, 1.0267,-1.1836,-1.0045
09-Sep-2020 10:49:36.576, 0.3580, 0.8451,-0.0916,-1.1303, 0.1629,-0.6543, 1.0460,-1.1945,-0.9878
09-Sep-2020 10:49:36.586, 0.3108, 0.9078,-0.0787,-1.1217, 0.0422,-0.7106, 1.0646,-1.2056,-0.9697
09-Sep-2020 10:49:36.596, 0.2773, 0.9411,-0.0888,-1.0265, 0.0076,-0.7638, 1.0820,-1.2170,-0.9516
09-Sep-2020 10:49:36.606, 0.2702, 0.9858,-0.0777,-0.8910, 0.1145,-0.7362, 1.0973,-1.2283,-0.9354
09-Sep-2020 10:49:36.616, 0.2472, 1.0316,-0.0747,-0.7386, 0.3858,-0.6506, 1.1118,-1.2388,-0.9214
09-Sep-2020 10:49:36.626, 0.2405, 1.1311,-0.0967,-0.5502, 0.5822,-0.6520, 1.1266,-1.2478,-0.9098
09-Sep-2020 10:49:36.636, 0.3229, 1.0786,-0.0855,-0.4094, 0.6060,-0.6159, 1.1391,-1.2559,-0.9026
09-Sep-2020 10:49:36.646, 0.3702, 1.0014,-0.0218,-0.3935, 0.5944,-0.5526, 1.1490,-1.2631,-0.8984
09-Sep-2020 10:49:36.656, 0.4044, 0.9937, 0.0268,-0.4370, 0.6198,-0.4689, 1.1594,-1.2696,-0.8937
09-Sep-2020 10:49:36.666, 0.3743, 0.8918, 0.0885,-0.4518, 0.6584,-0.2869, 1.1727,-1.2754,-0.8864
09-Sep-2020 10:49:36.675, 0.3288, 0.9138, 0.0545,-0.4604, 0.4566,-0.2515, 1.1892,-1.2798,-0.8759
09-Sep-2020 10:49:36.685, 0.3401, 0.9573,-0.0016,-0.3769, 0.4554,-0.3186, 1.2050,-1.2837,-0.8643
09-Sep-2020 10:49:36.695, 0.3235, 0.9651,-0.0520,-0.2764, 0.4309,-0.3748, 1.2177,-1.2879,-0.8558
09-Sep-2020 10:49:36.705, 0.2822, 0.9650,-0.0936,-0.1890, 0.3614,-0.4140, 1.2266,-1.2923,-0.8510
09-Sep-2020 10:49:36.718, 0.2804, 0.9799,-0.0913,-0.1310, 0.2515,-0.4341, 1.2316,-1.2967,-0.8495
09-Sep-2020 10:49:36.725, 0.3781, 0.9855,-0.0035,-0.1533, 0.2065,-0.3716, 1.2337,-1.3011,-0.8499
09-Sep-2020 10:49:36.735, 0.4991, 0.9642, 0.0255,-0.1562, 0.1618,-0.2157, 1.2365,-1.3050,-0.8491
09-Sep-2020 10:49:36.745, 0.5917, 0.8930, 0.0279,-0.1086, 0.1675, 0.0667, 1.2409,-1.3074,-0.8462
09-Sep-2020 10:49:36.755, 0.6445, 0.8448,-0.0271,-0.0165, 0.1475, 0.4704, 1.2471,-1.3069,-0.8415
09-Sep-2020 10:49:36.765, 0.6079, 0.8289,-0.1149, 0.1537, 0.1425, 0.8678, 1.2543,-1.3024,-0.8355
09-Sep-2020 10:49:36.775, 0.4723, 0.8372,-0.2011, 0.3967,-0.0008, 1.1803, 1.2599,-1.2937,-0.8312
09-Sep-2020 10:49:36.785, 0.3226, 0.8680,-0.2549, 0.6035,-0.4468, 1.3328, 1.2590,-1.2813,-0.8318
09-Sep-2020 10:49:36.795, 0.1712, 0.9230,-0.1965, 0.7041,-0.8734, 1.3026, 1.2494,-1.2669,-0.8372
09-Sep-2020 10:49:36.805, 0.1271, 0.9674,-0.0932, 0.7514,-0.9800, 1.1450, 1.2333,-1.2524,-0.8452
09-Sep-2020 10:49:36.815, 0.1936, 0.9072,-0.1163, 0.8709,-0.9730, 0.9766, 1.2141,-1.2389,-0.8552
09-Sep-2020 10:49:36.825, 0.1903, 0.8749,-0.0402, 0.9349,-0.7654, 0.7603, 1.1916,-1.2267,-0.8690
09-Sep-2020 10:49:36.835, 0.1821, 0.8551, 0.0329, 0.9076,-0.3835, 0.5235, 1.1684,-1.2162,-0.8856
09-Sep-2020 10:49:36.845, 0.1203, 0.7864, 0.1523, 0.8242, 0.4437, 0.2720, 1.1489,-1.2077,-0.9030
09-Sep-2020 10:49:36.855, 0.1208, 0.7128,-0.0969, 0.8510, 0.5283, 0.0504, 1.1360,-1.2017,-0.9208
09-Sep-2020 10:49:36.865, 0.1469, 0.7111,-0.2062, 0.7593, 0.5448,-0.1016, 1.1223,-1.1976,-0.9411
09-Sep-2020 10:49:36.874, 0.0979, 0.7605,-0.1166, 0.5189, 0.8785,-0.2029, 1.1099,-1.1951,-0.9605
09-Sep-2020 10:49:36.884, 0.0960, 0.7857,-0.1720, 0.3185, 0.9880,-0.3767, 1.1043,-1.1945,-0.9757
09-Sep-2020 10:49:36.894, 0.0940, 0.7870,-0.2435, 0.1909, 0.8015,-0.6487, 1.1024,-1.1964,-0.9882
09-Sep-2020 10:49:36.904, 0.0801, 0.7770,-0.2104, 0.0812, 0.7066,-0.9618, 1.0985,-1.2013,-1.0009
09-Sep-2020 10:49:36.915, 0.0854, 0.7758,-0.2036, 0.0198, 0.6921,-1.2504, 1.0922,-1.2093,-1.0153
09-Sep-2020 10:49:36.924, 0.0807, 0.7874,-0.1851,-0.0320, 0.7851,-1.4780, 1.0832,-1.2201,-1.0323
09-Sep-2020 10:49:36.934, 0.0812, 0.7879,-0.0959,-0.1486, 1.1503,-1.5536, 1.0728,-1.2331,-1.0517
09-Sep-2020 10:49:36.944, 0.0889, 0.7851,-0.0116,-0.3474, 1.7237,-1.4553, 1.0669,-1.2472,-1.0703
09-Sep-2020 10:49:36.954, 0.1161, 0.8024,-0.0670,-0.4659, 2.2141,-1.1899, 1.0719,-1.2614,-1.0829
09-Sep-2020 10:49:36.966, 0.1652, 0.8394,-0.1008,-0.5637, 2.4978,-0.8460, 1.0892,-1.2739,-1.0878
09-Sep-2020 10:49:36.974, 0.2121, 0.8748,-0.0466,-0.6407, 2.3212,-0.6367, 1.1176,-1.2839,-1.0837
09-Sep-2020 10:49:36.984, 0.2343, 0.8973,-0.0395,-0.6105, 1.5873,-0.6111, 1.1507,-1.2923,-1.0730
09-Sep-2020 10:49:36.994, 0.3311, 1.1797,-0.3783,-0.1890,-0.0036,-0.6459, 1.1770,-1.3002,-1.0617
09-Sep-2020 10:49:37.004, 0.2485, 0.9633, 0.2122,-0.8187,-0.1838,-0.5800, 1.1818,-1.3073,-1.0589
09-Sep-2020 10:49:37.014, 0.2268, 0.8348, 0.1686,-1.3779,-0.1561,-0.4128, 1.2007,-1.3155,-1.0377
09-Sep-2020 10:49:37.025, 0.2820, 0.9094,-0.1216,-1.3800,-0.7438,-0.2469, 1.2410,-1.3238,-0.9936
09-Sep-2020 10:49:37.035, 0.2690, 0.8967, 0.0381,-1.0959,-1.2049,-0.0823, 1.2825,-1.3301,-0.9432
09-Sep-2020 10:49:37.044, 0.2631, 0.8693, 0.0639,-0.5960,-1.1725, 0.1213, 1.3129,-1.3338,-0.9001
09-Sep-2020 10:49:37.054, 0.2245, 0.8352, 0.0943,-0.0993,-0.7386, 0.2513, 1.3265,-1.3340,-0.8743
09-Sep-2020 10:49:37.064, 0.1721, 0.8033, 0.0133, 0.2276,-0.3940, 0.2004, 1.3258,-1.3319,-0.8674
09-Sep-2020 10:49:37.074, 0.1062, 0.8041,-0.0922, 0.3762,-0.4346,-0.0742, 1.3146,-1.3295,-0.8745
09-Sep-2020 10:49:37.084, 0.0556, 0.5412, 0.1012, 0.3156,-0.3110,-0.3103, 1.2962,-1.3292,-0.8894
09-Sep-2020 10:49:37.093, 0.0723, 0.3394,-0.1298, 0.5980,-0.5173,-0.3566, 1.2760,-1.3310,-0.9066
09-Sep-2020 10:49:37.103, 0.1934, 0.5960,-0.1398, 0.8976,-0.4593,-0.2967, 1.2426,-1.3323,-0.9358
09-Sep-2020 10:49:37.114, 0.1103, 0.7904, 0.0685, 0.6376,-0.7436,-0.4096, 1.2004,-1.3322,-0.9743
09-Sep-2020 10:49:37.124, 0.2724, 1.7364, 0.1381, 0.3358, 0.2261,-0.6062, 1.1649,-1.3336,-1.0046
09-Sep-2020 10:49:37.133, 0.5085, 2.8893, 0.1300, 0.1780, 1.6369,-0.8636, 1.1450,-1.3381,-1.0277
09-Sep-2020 10:49:37.144, 1.1357, 3.1751,-0.3515, 0.4320, 2.3653,-0.3223, 1.1386,-1.3443,-1.0506
09-Sep-2020 10:49:37.154, 0.7542, 2.9475,-0.5184, 0.6906, 2.2889,-0.1315, 1.1383,-1.3455,-1.0744
09-Sep-2020 10:49:37.163, 0.1574, 2.0865,-0.2506, 0.7172, 2.1577,-0.4736, 1.1316,-1.3441,-1.1046
09-Sep-2020 10:49:37.173, 0.0542, 1.2753,-0.1248, 0.6288, 1.8946,-0.7768, 1.1166,-1.3452,-1.1419
09-Sep-2020 10:49:37.183,-0.0444, 0.8201,-0.0100, 0.4255, 1.4900,-1.0511, 1.0957,-1.3493,-1.1825
09-Sep-2020 10:49:37.193,-0.1106, 0.5686, 0.1194, 0.1029, 0.9669,-1.2733, 1.0719,-1.3564,-1.2220
09-Sep-2020 10:49:37.203,-0.1550, 0.4619, 0.1676,-0.1986, 0.4865,-1.4768, 1.0482,-1.3669,-1.2561
09-Sep-2020 10:49:37.213,-0.1438, 0.5255, 0.0932,-0.3365, 0.0893,-1.6595, 1.0236,-1.3804,-1.2861
09-Sep-2020 10:49:37.223,-0.0319, 0.6810,-0.0603,-0.3308,-0.3499,-1.7452, 0.9919,-1.3960,-1.3192
09-Sep-2020 10:49:37.233, 0.0576, 0.8596,-0.1255,-0.2642,-0.6763,-1.7428, 0.9463,-1.4120,-1.3619
09-Sep-2020 10:49:37.243, 0.0841, 1.0306,-0.1159,-0.1942,-0.7504,-1.7058, 0.8843,-1.4273,-1.4181
09-Sep-2020 10:49:37.253, 0.0671, 1.1510,-0.1032,-0.1143,-0.5654,-1.6497, 0.8058,-1.4412,-1.4899
09-Sep-2020 10:49:37.263, 0.0521, 1.1875,-0.1061,-0.0289,-0.2586,-1.5447, 0.7110,-1.4532,-1.5798
09-Sep-2020 10:49:37.273, 0.0253, 1.1601,-0.1260, 0.0577, 0.0093,-1.4035, 0.6029,-1.4628,-1.6860
09-Sep-2020 10:49:37.283, 0.0031, 1.0986,-0.1110, 0.1172, 0.2136,-1.2277, 0.4871,-1.4695,-1.8025
09-Sep-2020 10:49:37.293,-0.0159, 1.0360,-0.0731, 0.1384, 0.3776,-1.0398, 0.3737,-1.4735,-1.9185
09-Sep-2020 10:49:37.303,-0.0607, 0.9994,-0.0210, 0.1057, 0.5049,-0.8893, 0.2719,-1.4754,-2.0246
09-Sep-2020 10:49:37.313,-0.1049, 0.9767, 0.0465,-0.0627, 0.5510,-0.8049, 0.1841,-1.4765,-2.1177
09-Sep-2020 10:49:37.322,-0.1371, 0.9517, 0.0678,-0.4098, 0.3937,-0.7505, 0.1063,-1.4783,-2.2012
09-Sep-2020 10:49:37.333,-0.1082, 0.8666, 0.0226,-0.6877, 0.2434,-0.6048, 0.0325,-1.4829,-2.2792
09-Sep-2020 10:49:37.342,-0.0959, 0.8071, 0.0029,-0.5915, 0.3594,-0.3969,-0.0341,-1.4894,-2.3487
09-Sep-2020 10:49:37.352,-0.0847, 0.8384,-0.0873,-0.2777, 0.4356,-0.2063,-0.0841,-1.4948,-2.4024
09-Sep-2020 10:49:37.362,-0.0442, 0.9223,-0.1428, 0.2421, 0.5648,-0.2263,-0.1134,-1.4972,-2.4361
09-Sep-2020 10:49:37.372,-0.0168, 0.9475,-0.1375, 0.4573, 0.5475,-0.1994,-0.1321,-1.4947,-2.4604
09-Sep-2020 10:49:37.382,-0.0274, 1.0115,-0.0864, 0.3564, 0.5067,-0.2914,-0.1442,-1.4901,-2.4779
09-Sep-2020 10:49:37.392,-0.0321, 1.0405,-0.0404, 0.1012, 0.4743,-0.3959,-0.1666,-1.4862,-2.5055
09-Sep-2020 10:49:37.402,-0.0252, 1.0109,-0.0034,-0.0612, 0.5812,-0.4390,-0.2033,-1.4844,-2.5472
09-Sep-2020 10:49:37.413,-0.0438, 0.9904,-0.0042,-0.0026, 0.7651,-0.4574,-0.2466,-1.4839,-2.5965
09-Sep-2020 10:49:37.422,-0.0836, 0.9922,-0.0256, 0.1363, 0.8677,-0.5248,-0.2885,-1.4826,-2.6461
09-Sep-2020 10:49:37.433,-0.1102, 1.0051,-0.0449, 0.2367, 0.7818,-0.6037,-0.3301,-1.4798,-2.6964
09-Sep-2020 10:49:37.442,-0.1300, 0.9941,-0.0222, 0.2594, 0.5637,-0.6313,-0.3730,-1.4755,-2.7473
09-Sep-2020 10:49:37.452,-0.1492, 0.9663, 0.0317, 0.1844, 0.3170,-0.5783,-0.4155,-1.4708,-2.7955
09-Sep-2020 10:49:37.462,-0.1930, 0.9672, 0.0429, 0.0796, 0.0446,-0.5218,-0.4552,-1.4667,-2.8386
09-Sep-2020 10:49:37.472,-0.2342, 1.0044, 0.0190, 0.0068,-0.2095,-0.4706,-0.4942,-1.4636,-2.8782
09-Sep-2020 10:49:37.482,-0.2535, 1.0300, 0.0153,-0.0394,-0.4140,-0.4100,-0.5326,-1.4613,-2.9148
09-Sep-2020 10:49:37.492,-0.2595, 1.0144, 0.0237,-0.0795,-0.5601,-0.3138,-0.5690,-1.4595,-2.9473
09-Sep-2020 10:49:37.502,-0.2548, 0.9875, 0.0242,-0.1187,-0.6586,-0.1914,-0.6008,-1.4584,-2.9736
09-Sep-2020 10:49:37.512,-0.2635, 0.9734, 0.0191,-0.1582,-0.6922,-0.0816,-0.6264,-1.4583,-2.9929
09-Sep-2020 10:49:37.522,-0.2777, 0.9761,-0.0005,-0.1628,-0.6993,-0.0341,-0.6469,-1.4591,-3.0066
09-Sep-2020 10:49:37.532,-0.2756, 0.9908,-0.0193,-0.1408,-0.7376,-0.0276,-0.6645,-1.4601,-3.0173
09-Sep-2020 10:49:37.542,-0.2580, 1.0090,-0.0203,-0.1214,-0.7863,-0.0295,-0.6811,-1.4611,-3.0265
09-Sep-2020 10:49:37.551,-0.2400, 1.0165,-0.0123,-0.1279,-0.8536,-0.0216,-0.6973,-1.4619,-3.0350
09-Sep-2020 10:49:37.561,-0.2247, 1.0230,-0.0053,-0.1356,-0.9178,-0.0131,-0.7142,-1.4627,-3.0434
09-Sep-2020 10:49:37.572,-0.2099, 1.0242, 0.0040,-0.1418,-0.9817,-0.0089,-0.7318,-1.4637,-3.0519
09-Sep-2020 10:49:37.581,-0.1956, 1.0190, 0.0116,-0.1509,-1.0504,-0.0195,-0.7505,-1.4647,-3.0608
09-Sep-2020 10:49:37.591,-0.1793, 1.0145, 0.0120,-0.1612,-1.1186,-0.0407,-0.7713,-1.4656,-3.0713
09-Sep-2020 10:49:37.601,-0.1636, 1.0046, 0.0099,-0.1781,-1.1831,-0.0679,-0.7953,-1.4665,-3.0842
09-Sep-2020 10:49:37.611,-0.1499, 0.9984, 0.0026,-0.2052,-1.2370,-0.1059,-0.8233,-1.4673,-3.1005
09-Sep-2020 10:49:37.621,-0.1292, 0.9940,-0.0101,-0.2222,-1.2829,-0.1340,-0.8562,-1.4679,-3.1213
09-Sep-2020 10:49:37.631,-0.1115, 0.9771,-0.0288,-0.2055,-1.3038,-0.1498,-0.8928,-1.4683, 3.1380
09-Sep-2020 10:49:37.641,-0.0952, 0.9763,-0.0383,-0.1886,-1.2778,-0.1586,-0.9296,-1.4684, 3.1140
09-Sep-2020 10:49:37.651,-0.0723, 0.9881,-0.0566,-0.1468,-1.2416,-0.1587,-0.9652,-1.4683, 3.0911
09-Sep-2020 10:49:37.661,-0.0554, 0.9912,-0.0589,-0.0983,-1.1910,-0.1447,-0.9971,-1.4678, 3.0713
09-Sep-2020 10:49:37.671,-0.0421, 0.9860,-0.0488,-0.0645,-1.1165,-0.1331,-1.0239,-1.4672, 3.0564
09-Sep-2020 10:49:37.681,-0.0346, 0.9831,-0.0443,-0.0366,-1.0035,-0.1207,-1.0460,-1.4664, 3.0453
09-Sep-2020 10:49:37.691,-0.0309, 0.9792,-0.0288,-0.0349,-0.8456,-0.1131,-1.0641,-1.4656, 3.0371
09-Sep-2020 10:49:37.701,-0.0341, 0.9845,-0.0381,-0.0149,-0.7084,-0.1299,-1.0798,-1.4648, 3.0298
09-Sep-2020 10:49:37.711,-0.0296, 0.9902,-0.0473, 0.0246,-0.5957,-0.1457,-1.0930,-1.4638, 3.0236
09-Sep-2020 10:49:37.721,-0.0253, 0.9868,-0.0421, 0.0471,-0.4943,-0.1466,-1.1026,-1.4624, 3.0200
09-Sep-2020 10:49:37.731,-0.0279, 0.9846,-0.0333, 0.0446,-0.3863,-0.1446,-1.1093,-1.4610, 3.0181
09-Sep-2020 10:49:37.740,-0.0215, 0.9828,-0.0259, 0.0292,-0.2919,-0.1383,-1.1149,-1.4595, 3.0164
09-Sep-2020 10:49:37.750,-0.0214, 1.0031,-0.0264, 0.0156,-0.2324,-0.1406,-1.1202,-1.4582, 3.0140
09-Sep-2020 10:49:37.760,-0.0148, 1.0044,-0.0216, 0.0142,-0.1901,-0.1256,-1.1260,-1.4569, 3.0106
09-Sep-2020 10:49:37.770,-0.0154, 1.0037,-0.0164, 0.0364,-0.1251,-0.0938,-1.1310,-1.4558, 3.0074
09-Sep-2020 10:49:37.781,-0.0351, 1.0122,-0.0110, 0.0719,-0.0653,-0.0547,-1.1324,-1.4549, 3.0073
09-Sep-2020 10:49:37.790,-0.0649, 1.0189,-0.0064, 0.1148,-0.0369,-0.0401,-1.1290,-1.4541, 3.0114
09-Sep-2020 10:49:37.800,-0.0924, 1.0161, 0.0002, 0.1491,-0.0648,-0.0325,-1.1216,-1.4533, 3.0193
09-Sep-2020 10:49:37.810,-0.1074, 1.0046, 0.0165, 0.1625,-0.1342,-0.0332,-1.1120,-1.4524, 3.0296
09-Sep-2020 10:49:37.820,-0.1191, 0.9949, 0.0319, 0.1585,-0.2245,-0.0272,-1.1020,-1.4514, 3.0410
09-Sep-2020 10:49:37.830,-0.1237, 0.9884, 0.0391, 0.1265,-0.3356,-0.0108,-1.0932,-1.4506, 3.0521
09-Sep-2020 10:49:37.840,-0.1314, 0.9845, 0.0413, 0.0715,-0.4578, 0.0014,-1.0875,-1.4499, 3.0613
09-Sep-2020 10:49:37.850,-0.1412, 0.9848, 0.0361, 0.0156,-0.5847, 0.0033,-1.0865,-1.4497, 3.0669
09-Sep-2020 10:49:37.860,-0.1482, 0.9920, 0.0281,-0.0387,-0.6938, 0.0093,-1.0905,-1.4497, 3.0687
09-Sep-2020 10:49:37.870,-0.1482, 1.0061, 0.0257,-0.1055,-0.7561, 0.0188,-1.0994,-1.4500, 3.0667
09-Sep-2020 10:49:37.880,-0.1463, 1.0215, 0.0224,-0.1792,-0.7730, 0.0311,-1.1136,-1.4507, 3.0600
09-Sep-2020 10:49:37.890,-0.1397, 1.0228, 0.0166,-0.2379,-0.7386, 0.0497,-1.1331,-1.4518, 3.0481
09-Sep-2020 10:49:37.900,-0.1356, 1.0037, 0.0086,-0.2521,-0.6476, 0.0689,-1.1561,-1.4533, 3.0323
09-Sep-2020 10:49:37.910,-0.1384, 0.9806,-0.0072,-0.1812,-0.5256, 0.0789,-1.1789,-1.4549, 3.0158
09-Sep-2020 10:49:37.920,-0.1419, 0.9776,-0.0232,-0.0730,-0.4197, 0.0696,-1.1954,-1.4563, 3.0045
09-Sep-2020 10:49:37.930,-0.1371, 0.9779,-0.0269, 0.0341,-0.3457, 0.0559,-1.2030,-1.4573, 3.0011
09-Sep-2020 10:49:37.940,-0.1197, 0.9673,-0.0155, 0.1143,-0.2801, 0.0393,-1.2015,-1.4578, 3.0060
09-Sep-2020 10:49:37.950,-0.1069, 0.9579, 0.0025, 0.1576,-0.2588, 0.0344,-1.1933,-1.4578, 3.0172
09-Sep-2020 10:49:37.959,-0.0982, 0.9673, 0.0175, 0.1508,-0.2709, 0.0229,-1.1817,-1.4576, 3.0315
09-Sep-2020 10:49:37.970,-0.0790, 0.9932, 0.0246, 0.1203,-0.2955, 0.0216,-1.1712,-1.4573, 3.0448
09-Sep-2020 10:49:37.979,-0.0558, 1.0016, 0.0223, 0.0896,-0.3164, 0.0555,-1.1632,-1.4571, 3.0558
09-Sep-2020 10:49:37.990,-0.0437, 1.0044, 0.0078, 0.0798,-0.3295, 0.0986,-1.1566,-1.4573, 3.0656
09-Sep-2020 10:49:37.999,-0.0421, 1.0020,-0.0093, 0.0683,-0.3473, 0.1386,-1.1494,-1.4579, 3.0761
09-Sep-2020 10:49:38.010,-0.0455, 0.9846,-0.0158, 0.0435,-0.3529, 0.1806,-1.1419,-1.4590, 3.0871
09-Sep-2020 10:49:38.022,-0.0594, 0.9773,-0.0321, 0.0160,-0.3870, 0.1945,-1.1348,-1.4605, 3.0979
09-Sep-2020 10:49:38.029,-0.0589, 0.9922,-0.0361, 0.0301,-0.3673, 0.1921,-1.1291,-1.4622, 3.1075
09-Sep-2020 10:49:38.039,-0.0557, 1.0007,-0.0294, 0.0538,-0.2715, 0.1876,-1.1220,-1.4638, 3.1182
09-Sep-2020 10:49:38.049,-0.0517, 0.9953,-0.0280, 0.0781,-0.1518, 0.1752,-1.1122,-1.4653, 3.1308
09-Sep-2020 10:49:38.059,-0.0447, 0.9913,-0.0267, 0.1024,-0.0134, 0.1629,-1.0991,-1.4666,-3.1377
09-Sep-2020 10:49:38.069,-0.0369, 0.9838,-0.0298, 0.1193, 0.1333, 0.1570,-1.0830,-1.4676,-3.1213
09-Sep-2020 10:49:38.079,-0.0387, 0.9621,-0.0410, 0.1505, 0.2420, 0.1549,-1.0635,-1.4685,-3.1031
09-Sep-2020 10:49:38.089,-0.0674, 0.9592,-0.0442, 0.1743, 0.3127, 0.1305,-1.0407,-1.4691,-3.0825
09-Sep-2020 10:49:38.099,-0.0929, 0.9566,-0.0336, 0.1852, 0.3876, 0.1054,-1.0158,-1.4694,-3.0605
09-Sep-2020 10:49:38.109,-0.1194, 0.9668,-0.0246, 0.1946, 0.4561, 0.0732,-0.9905,-1.4693,-3.0390
09-Sep-2020 10:49:38.119,-0.1367, 0.9829,-0.0197, 0.2045, 0.5053, 0.0256,-0.9657,-1.4689,-3.0186
09-Sep-2020 10:49:38.128,-0.1474, 0.9932,-0.0031, 0.2121, 0.5459,-0.0110,-0.9425,-1.4679,-3.0003
09-Sep-2020 10:49:38.138,-0.1568, 0.9979, 0.0139, 0.1934, 0.5882,-0.0400,-0.9209,-1.4666,-2.9841
09-Sep-2020 10:49:38.149,-0.1636, 0.9950, 0.0154, 0.1766, 0.5629,-0.0742,-0.9023,-1.4652,-2.9712
09-Sep-2020 10:49:38.158,-0.1606, 0.9984, 0.0183, 0.1353, 0.4846,-0.0967,-0.8877,-1.4636,-2.9621
09-Sep-2020 10:49:38.168,-0.1468, 0.9941, 0.0180, 0.0985, 0.3898,-0.0965,-0.8783,-1.4620,-2.9575
09-Sep-2020 10:49:38.178,-0.1436, 0.9872, 0.0107, 0.0796, 0.2604,-0.0908,-0.8724,-1.4607,-2.9554
09-Sep-2020 10:49:38.188,-0.1403, 0.9875, 0.0136, 0.0589, 0.1134,-0.0887,-0.8689,-1.4595,-2.9545
09-Sep-2020 10:49:38.198,-0.1311, 0.9858, 0.0272, 0.0127,-0.0030,-0.0892,-0.8684,-1.4585,-2.9551
09-Sep-2020 10:49:38.208,-0.1281, 0.9940, 0.0305,-0.0326,-0.0756,-0.0888,-0.8721,-1.4578,-2.9588
09-Sep-2020 10:49:38.218,-0.1280, 1.0021, 0.0213,-0.0597,-0.1119,-0.0888,-0.8792,-1.4574,-2.9652
09-Sep-2020 10:49:38.228,-0.1228, 1.0078, 0.0114,-0.0603,-0.1265,-0.0860,-0.8883,-1.4571,-2.9733
09-Sep-2020 10:49:38.238,-0.1163, 1.0103, 0.0046,-0.0572,-0.1358,-0.0829,-0.8977,-1.4568,-2.9814
09-Sep-2020 10:49:38.248,-0.1120, 1.0112,-0.0030,-0.0594,-0.1411,-0.0777,-0.9069,-1.4566,-2.9894
09-Sep-2020 10:49:38.258,-0.1096, 1.0108,-0.0117,-0.0669,-0.1431,-0.0665,-0.9159,-1.4564,-2.9970
09-Sep-2020 10:49:38.268,-0.1080, 1.0110,-0.0178,-0.0751,-0.1427,-0.0478,-0.9247,-1.4563,-3.0044
09-Sep-2020 10:49:38.278,-0.1106, 1.0088,-0.0238,-0.0770,-0.1456,-0.0277,-0.9332,-1.4564,-3.0115
09-Sep-2020 10:49:38.288,-0.1115, 1.0031,-0.0264,-0.0794,-0.1357,-0.0111,-0.9411,-1.4567,-3.0180
09-Sep-2020 10:49:38.298,-0.1112, 0.9947,-0.0282,-0.0748,-0.1198, 0.0098,-0.9480,-1.4571,-3.0236
09-Sep-2020 10:49:38.308,-0.1099, 0.9850,-0.0325,-0.0680,-0.0960, 0.0290,-0.9555,-1.4577,-3.0299
09-Sep-2020 10:49:38.318,-0.1105, 0.9813,-0.0350,-0.0610,-0.0690, 0.0414,-0.9611,-1.4584,-3.0346
09-Sep-2020 10:49:38.328,-0.1141, 0.9815,-0.0385,-0.0539,-0.0341, 0.0517,-0.9651,-1.4592,-3.0379
09-Sep-2020 10:49:38.337,-0.1199, 0.9827,-0.0425,-0.0447, 0.0016, 0.0571,-0.9675,-1.4600,-3.0399
09-Sep-2020 10:49:38.348,-0.1289, 0.9867,-0.0452,-0.0327, 0.0296, 0.0527,-0.9684,-1.4608,-3.0408
09-Sep-2020 10:49:38.358,-0.1381, 0.9865,-0.0457,-0.0160, 0.0444, 0.0415,-0.9681,-1.4615,-3.0408
09-Sep-2020 10:49:38.367,-0.1461, 0.9846,-0.0370,-0.0096, 0.0491, 0.0339,-0.9669,-1.4620,-3.0400
09-Sep-2020 10:49:38.377,-0.1542, 0.9827,-0.0230,-0.0095, 0.0370, 0.0234,-0.9655,-1.4623,-3.0391
09-Sep-2020 10:49:38.387,-0.1623, 0.9819,-0.0101,-0.0150, 0.0090, 0.0042,-0.9649,-1.4626,-3.0388
09-Sep-2020 10:49:38.397,-0.1683, 0.9798, 0.0022,-0.0255,-0.0342,-0.0106,-0.9659,-1.4628,-3.0398
09-Sep-2020 10:49:38.407,-0.1712, 0.9820, 0.0121,-0.0423,-0.0766,-0.0276,-0.9687,-1.4629,-3.0423
09-Sep-2020 10:49:38.417,-0.1721, 0.9876, 0.0244,-0.0802,-0.1141,-0.0500,-0.9743,-1.4629,-3.0472
09-Sep-2020 10:49:38.427,-0.1682, 0.9813, 0.0336,-0.1228,-0.1228,-0.0688,-0.9841,-1.4629,-3.0559
09-Sep-2020 10:49:38.437,-0.1638, 0.9822, 0.0426,-0.1617,-0.0536,-0.0519,-0.9981,-1.4630,-3.0688
09-Sep-2020 10:49:38.447,-0.1582, 0.9873, 0.0287,-0.1598, 0.0252,-0.0537,-1.0137,-1.4634,-3.0839
09-Sep-2020 10:49:38.457,-0.1525, 0.9993, 0.0048,-0.1014, 0.0265,-0.0998,-1.0288,-1.4637,-3.0993
09-Sep-2020 10:49:38.467,-0.1278, 0.9986, 0.0158,-0.0506,-0.0061,-0.1177,-1.0417,-1.4633,-3.1125
09-Sep-2020 10:49:38.477,-0.1094, 0.9773, 0.0394,-0.0299,-0.0545,-0.1225,-1.0521,-1.4625,-3.1229
09-Sep-2020 10:49:38.487,-0.0971, 0.9821, 0.0397, 0.0220,-0.1722,-0.1417,-1.0615,-1.4615,-3.1317
09-Sep-2020 10:49:38.497,-0.0611, 1.0000, 0.0493, 0.0460,-0.2604,-0.0832,-1.0688,-1.4601,-3.1373
09-Sep-2020 10:49:38.507,-0.0354, 1.0073, 0.0598, 0.0124,-0.3172,-0.0046,-1.0731,-1.4592,-3.1390
09-Sep-2020 10:49:38.517,-0.0377, 1.0018, 0.0460,-0.0442,-0.3462, 0.0200,-1.0775,-1.4590,-3.1402
09-Sep-2020 10:49:38.527,-0.0296, 0.9966, 0.0239,-0.0911,-0.3480, 0.0425,-1.0854,-1.4594, 3.1386
09-Sep-2020 10:49:38.536,-0.0174, 0.9964, 0.0051,-0.1173,-0.3098, 0.0708,-1.0959,-1.4602, 3.1315
09-Sep-2020 10:49:38.546,-0.0141, 0.9930,-0.0134,-0.1207,-0.2289, 0.0882,-1.1066,-1.4613, 3.1238
09-Sep-2020 10:49:38.557,-0.0146, 0.9933,-0.0323,-0.0920,-0.1341, 0.0912,-1.1158,-1.4627, 3.1169
09-Sep-2020 10:49:38.566,-0.0247, 0.9956,-0.0411,-0.0441,-0.0280, 0.0862,-1.1220,-1.4639, 3.1120
09-Sep-2020 10:49:38.577,-0.0392, 0.9947,-0.0366,-0.0002, 0.0729, 0.0927,-1.1237,-1.4650, 3.1106
09-Sep-2020 10:49:38.586,-0.0600, 0.9936,-0.0283, 0.0345, 0.1388, 0.0853,-1.1202,-1.4660, 3.1134
09-Sep-2020 10:49:38.596,-0.0775, 0.9913,-0.0095, 0.0522, 0.1827, 0.0768,-1.1133,-1.4669, 3.1190
09-Sep-2020 10:49:38.607,-0.0876, 0.9865, 0.0097, 0.0519, 0.2050, 0.0642,-1.1047,-1.4676, 3.1259
09-Sep-2020 10:49:38.616,-0.0935, 0.9868, 0.0208, 0.0352, 0.2119, 0.0526,-1.0959,-1.4682, 3.1327
09-Sep-2020 10:49:38.626,-0.0936, 0.9881, 0.0242, 0.0127, 0.1960, 0.0418,-1.0882,-1.4688, 3.1384
09-Sep-2020 10:49:38.636,-0.0894, 0.9875, 0.0208, 0.0025, 0.1757, 0.0312,-1.0824,-1.4693,-3.1410
09-Sep-2020 10:49:38.646,-0.0853, 0.9872, 0.0237,-0.0097, 0.1704, 0.0145,-1.0780,-1.4698,-3.1383
09-Sep-2020 10:49:38.656,-0.0803, 0.9890, 0.0218,-0.0188, 0.1825,-0.0059,-1.0751,-1.4701,-3.1371
09-Sep-2020 10:49:38.666,-0.0756, 0.9895, 0.0159,-0.0135, 0.1937,-0.0246,-1.0739,-1.4703,-3.1377
09-Sep-2020 10:49:38.676,-0.0708, 0.9890, 0.0097, 0.0031, 0.2000,-0.0382,-1.0733,-1.4703,-3.1391
09-Sep-2020 10:49:38.686,-0.0642, 0.9876, 0.0068, 0.0169, 0.2013,-0.0467,-1.0726,-1.4701,-3.1403
09-Sep-2020 10:49:38.696,-0.0605, 0.9844, 0.0063, 0.0274, 0.2181,-0.0525,-1.0715,-1.4697,-3.1412
09-Sep-2020 10:49:38.706,-0.0577, 0.9841, 0.0074, 0.0288, 0.2349,-0.0590,-1.0701,-1.4692, 3.1412
09-Sep-2020 10:49:38.716,-0.0558, 0.9834, 0.0014, 0.0319, 0.2454,-0.0574,-1.0687,-1.4687, 3.1403
09-Sep-2020 10:49:38.726,-0.0537, 0.9852,-0.0033, 0.0411, 0.2602,-0.0484,-1.0669,-1.4682, 3.1396
09-Sep-2020 10:49:38.736,-0.0565, 0.9923,-0.0035, 0.0428, 0.2732,-0.0395,-1.0640,-1.4677, 3.1400
09-Sep-2020 10:49:38.746,-0.0630, 1.0007,-0.0011, 0.0378, 0.2881,-0.0322,-1.0603,-1.4673, 3.1410
09-Sep-2020 10:49:38.756,-0.0745, 1.0094, 0.0048, 0.0366, 0.3033,-0.0184,-1.0561,-1.4670,-3.1408
09-Sep-2020 10:49:38.766,-0.0872, 1.0165, 0.0082, 0.0360, 0.3123,-0.0133,-1.0512,-1.4668,-3.1389
09-Sep-2020 10:49:38.775,-0.0993, 1.0167, 0.0131, 0.0352, 0.3052,-0.0066,-1.0459,-1.4666,-3.1367
09-Sep-2020 10:49:38.785,-0.1078, 1.0111, 0.0168, 0.0311, 0.2775,-0.0013,-1.0403,-1.4666,-3.1341
09-Sep-2020 10:49:38.796,-0.1138, 1.0060, 0.0209, 0.0210, 0.2352, 0.0080,-1.0350,-1.4666,-3.1315
09-Sep-2020 10:49:38.805,-0.1164, 1.0003, 0.0233, 0.0090, 0.1814, 0.0097,-1.0305,-1.4667,-3.1294
09-Sep-2020 10:49:38.816,-0.1100, 0.9963, 0.0208,-0.0005, 0.1220, 0.0100,-1.0274,-1.4669,-3.1280
09-Sep-2020 10:49:38.825,-0.0990, 0.9931, 0.0162,-0.0071, 0.0784, 0.0172,-1.0255,-1.4672,-3.1273
09-Sep-2020 10:49:38.835,-0.0878, 0.9882, 0.0081,-0.0124, 0.0537, 0.0279,-1.0241,-1.4675,-3.1267
09-Sep-2020 10:49:38.845,-0.0785, 0.9841,-0.0018,-0.0141, 0.0504, 0.0425,-1.0231,-1.4680,-3.1262
09-Sep-2020 10:49:38.855,-0.0751, 0.9858,-0.0128,-0.0150, 0.0538, 0.0526,-1.0220,-1.4685,-3.1255
09-Sep-2020 10:49:38.865,-0.0861, 0.9867,-0.0196,-0.0183, 0.0768, 0.0568,-1.0205,-1.4691,-3.1246
09-Sep-2020 10:49:38.875,-0.1024, 0.9840,-0.0208,-0.0216, 0.1234, 0.0473,-1.0192,-1.4698,-3.1240
09-Sep-2020 10:49:38.885,-0.1131, 0.9815,-0.0290,-0.0059, 0.1638, 0.0404,-1.0181,-1.4704,-3.1241
09-Sep-2020 10:49:38.895,-0.1198, 0.9834,-0.0343, 0.0157, 0.1887, 0.0314,-1.0158,-1.4708,-3.1234
09-Sep-2020 10:49:38.905,-0.1292, 0.9867,-0.0256, 0.0348, 0.2139, 0.0115,-1.0120,-1.4710,-3.1214
09-Sep-2020 10:49:38.915,-0.1340, 0.9909,-0.0170, 0.0361, 0.2293,-0.0016,-1.0072,-1.4710,-3.1188
09-Sep-2020 10:49:38.925,-0.1339, 0.9924,-0.0096, 0.0223, 0.2247,-0.0127,-1.0027,-1.4710,-3.1165
09-Sep-2020 10:49:38.935,-0.1299, 0.9921,-0.0081, 0.0152, 0.2024,-0.0177,-0.9995,-1.4708,-3.1155
09-Sep-2020 10:49:38.945,-0.1250, 0.9936,-0.0082, 0.0067, 0.1707,-0.0214,-0.9972,-1.4707,-3.1152
09-Sep-2020 10:49:38.955,-0.1185, 0.9930,-0.0071, 0.0112, 0.1369,-0.0253,-0.9957,-1.4706,-3.1154
09-Sep-2020 10:49:38.965,-0.1104, 0.9865,-0.0078, 0.0157, 0.1030,-0.0232,-0.9947,-1.4704,-3.1157
09-Sep-2020 10:49:38.975,-0.1074, 0.9798,-0.0038, 0.0222, 0.0848,-0.0178,-0.9936,-1.4701,-3.1156
09-Sep-2020 10:49:38.985,-0.1106, 0.9806,-0.0005, 0.0275, 0.0815,-0.0200,-0.9918,-1.4699,-3.1147
09-Sep-2020 10:49:38.994,-0.1179, 0.9854, 0.0031, 0.0268, 0.0904,-0.0203,-0.9900,-1.4695,-3.1137
09-Sep-2020 10:49:39.005,-0.1261, 0.9912, 0.0060, 0.0259, 0.1009,-0.0196,-0.9885,-1.4692,-3.1131
09-Sep-2020 10:49:39.014,-0.1329, 0.9940, 0.0072, 0.0144, 0.1071,-0.0235,-0.9873,-1.4689,-3.1129
09-Sep-2020 10:49:39.025,-0.1359, 0.9938, 0.0070, 0.0088, 0.1038,-0.0223,-0.9870,-1.4686,-3.1136
09-Sep-2020 10:49:39.034,-0.1375, 0.9962, 0.0072, 0.0034, 0.0895,-0.0199,-0.9870,-1.4684,-3.1147
09-Sep-2020 10:49:39.044,-0.1371, 0.9968, 0.0075, 0.0045, 0.0675,-0.0226,-0.9875,-1.4683,-3.1160
09-Sep-2020 10:49:39.054,-0.1338, 0.9960, 0.0098, 0.0025, 0.0390,-0.0221,-0.9881,-1.4681,-3.1173
09-Sep-2020 10:49:39.064,-0.1298, 0.9927, 0.0103, 0.0016, 0.0030,-0.0191,-0.9891,-1.4679,-3.1187
09-Sep-2020 10:49:39.074,-0.1265, 0.9869, 0.0110,-0.0045,-0.0347,-0.0188,-0.9906,-1.4678,-3.1202
09-Sep-2020 10:49:39.084,-0.1229, 0.9857, 0.0085,-0.0084,-0.0845,-0.0113,-0.9929,-1.4678,-3.1221
09-Sep-2020 10:49:39.094,-0.1198, 0.9865, 0.0036,-0.0054,-0.1331,-0.0121,-0.9958,-1.4677,-3.1241
09-Sep-2020 10:49:39.104,-0.1157, 0.9901,-0.0013,-0.0063,-0.1711,-0.0041,-0.9991,-1.4677,-3.1261
09-Sep-2020 10:49:39.114,-0.1121, 0.9915,-0.0082,-0.0079,-0.1922, 0.0030,-1.0026,-1.4677,-3.1279
09-Sep-2020 10:49:39.124,-0.1073, 0.9910,-0.0176,-0.0004,-0.1970, 0.0088,-1.0058,-1.4678,-3.1292
09-Sep-2020 10:49:39.134,-0.1048, 0.9878,-0.0255, 0.0073,-0.1889, 0.0148,-1.0083,-1.4679,-3.1297
09-Sep-2020 10:49:39.144,-0.1033, 0.9850,-0.0297, 0.0125,-0.1641, 0.0210,-1.0097,-1.4680,-3.1292
09-Sep-2020 10:49:39.154,-0.1068, 0.9870,-0.0307, 0.0187,-0.1180, 0.0207,-1.0100,-1.4681,-3.1279
09-Sep-2020 10:49:39.163,-0.1135, 0.9893,-0.0258, 0.0262,-0.0505, 0.0169,-1.0094,-1.4682,-3.1260
09-Sep-2020 10:49:39.173,-0.1202, 0.9963,-0.0185, 0.0300, 0.0004, 0.0125,-1.0077,-1.4683,-3.1239
09-Sep-2020 10:49:39.183,-0.1271, 1.0019,-0.0130, 0.0342, 0.0308, 0.0080,-1.0054,-1.4683,-3.1215
09-Sep-2020 10:49:39.193,-0.1300, 1.0043,-0.0035, 0.0292, 0.0273, 0.0032,-1.0026,-1.4682,-3.1189
09-Sep-2020 10:49:39.204,-0.1294, 1.0043, 0.0015, 0.0178,-0.0118, 0.0038,-1.0003,-1.4681,-3.1169
09-Sep-2020 10:49:39.213,-0.1209, 1.0007, 0.0083, 0.0018,-0.0734, 0.0101,-0.9990,-1.4681,-3.1154
09-Sep-2020 10:49:39.223,-0.1063, 0.9975, 0.0147,-0.0146,-0.1270, 0.0125,-0.9990,-1.4683,-3.1147
09-Sep-2020 10:49:39.233,-0.0897, 0.9937, 0.0112,-0.0241,-0.1566, 0.0184,-1.0007,-1.4685,-3.1150
09-Sep-2020 10:49:39.243,-0.0766, 0.9951, 0.0012,-0.0267,-0.1558, 0.0246,-1.0031,-1.4688,-3.1159
09-Sep-2020 10:49:39.253,-0.0677, 0.9964,-0.0081,-0.0258,-0.1234, 0.0308,-1.0055,-1.4691,-3.1168
09-Sep-2020 10:49:39.263,-0.0620, 0.9966,-0.0171,-0.0224,-0.0727, 0.0374,-1.0074,-1.4695,-3.1174
09-Sep-2020 10:49:39.273,-0.0612, 0.9963,-0.0245,-0.0129,-0.0096, 0.0467,-1.0082,-1.4700,-3.1175
09-Sep-2020 10:49:39.283,-0.0639, 0.9951,-0.0293,-0.0008, 0.0462, 0.0593,-1.0074,-1.4705,-3.1166
09-Sep-2020 10:49:39.293,-0.0680, 0.9959,-0.0306, 0.0076, 0.0974, 0.0734,-1.0046,-1.4710,-3.1142
09-Sep-2020 10:49:39.303,-0.0723, 0.9959,-0.0279, 0.0118, 0.1324, 0.0789,-1.0000,-1.4716,-3.1105
09-Sep-2020 10:49:39.313,-0.0755, 0.9955,-0.0242, 0.0142, 0.1658, 0.0928,-0.9939,-1.4722,-3.1057
09-Sep-2020 10:49:39.323,-0.0784, 0.9968,-0.0199, 0.0120, 0.1865, 0.0984,-0.9865,-1.4730,-3.0999
09-Sep-2020 10:49:39.333,-0.0794, 0.9979,-0.0188, 0.0114, 0.2038, 0.1078,-0.9781,-1.4739,-3.0933
09-Sep-2020 10:49:39.343,-0.0782, 0.9982,-0.0152, 0.0112, 0.2068, 0.1125,-0.9689,-1.4748,-3.0860
09-Sep-2020 10:49:39.353,-0.0747, 1.0008,-0.0125, 0.0087, 0.2082, 0.1208,-0.9590,-1.4757,-3.0781
09-Sep-2020 10:49:39.363,-0.0716, 1.0041,-0.0094, 0.0049, 0.2153, 0.1284,-0.9484,-1.4768,-3.0695
09-Sep-2020 10:49:39.373,-0.0702, 1.0049,-0.0096,-0.0022, 0.2261, 0.1383,-0.9373,-1.4779,-3.0605
09-Sep-2020 10:49:39.383,-0.0711, 1.0031,-0.0123,-0.0034, 0.2396, 0.1508,-0.9258,-1.4791,-3.0512
09-Sep-2020 10:49:39.392,-0.0716, 0.9976,-0.0142, 0.0003, 0.2500, 0.1567,-0.9133,-1.4803,-3.0410
09-Sep-2020 10:49:39.403,-0.0767, 0.9904,-0.0133, 0.0021, 0.2583, 0.1580,-0.8998,-1.4816,-3.0300
09-Sep-2020 10:49:39.412,-0.0850, 0.9859,-0.0091, 0.0006, 0.2773, 0.1508,-0.8857,-1.4829,-3.0184
09-Sep-2020 10:49:39.422,-0.0913, 0.9822,-0.0061,-0.0045, 0.2837, 0.1396,-0.8719,-1.4841,-3.0073
09-Sep-2020 10:49:39.432,-0.0971, 0.9816,-0.0085,-0.0082, 0.2759, 0.1292,-0.8588,-1.4852,-2.9970
09-Sep-2020 10:49:39.442,-0.1042, 0.9835,-0.0110,-0.0116, 0.2540, 0.1215,-0.8467,-1.4863,-2.9876
09-Sep-2020 10:49:39.452,-0.1087, 0.9890,-0.0079,-0.0159, 0.2276, 0.1135,-0.8356,-1.4874,-2.9789
09-Sep-2020 10:49:39.462,-0.1120, 0.9926,-0.0060,-0.0259, 0.2059, 0.1100,-0.8256,-1.4884,-2.9712
09-Sep-2020 10:49:39.472,-0.1130, 0.9934,-0.0061,-0.0293, 0.1916, 0.1077,-0.8156,-1.4894,-2.9632
09-Sep-2020 10:49:39.482,-0.1159, 0.9948,-0.0094,-0.0294, 0.1681, 0.1014,-0.8061,-1.4904,-2.9556
09-Sep-2020 10:49:39.492,-0.1168, 0.9924,-0.0088,-0.0236, 0.1523, 0.0945,-0.7972,-1.4914,-2.9483
09-Sep-2020 10:49:39.502,-0.1168, 0.9891,-0.0085,-0.0261, 0.1398, 0.0855,-0.7885,-1.4923,-2.9412
09-Sep-2020 10:49:39.512,-0.1149, 0.9838,-0.0073,-0.0249, 0.1172, 0.0721,-0.7809,-1.4931,-2.9348
09-Sep-2020 10:49:39.522,-0.1119, 0.9847,-0.0055,-0.0255, 0.0922, 0.0612,-0.7758,-1.4938,-2.9309
09-Sep-2020 10:49:39.532,-0.1095, 0.9865,-0.0040,-0.0249, 0.0666, 0.0546,-0.7720,-1.4944,-2.9280
09-Sep-2020 10:49:39.542,-0.1068, 0.9894,-0.0046,-0.0306, 0.0345, 0.0484,-0.7693,-1.4950,-2.9259
09-Sep-2020 10:49:39.552,-0.1083, 0.9933,-0.0066,-0.0330, 0.0032, 0.0403,-0.7681,-1.4955,-2.9250
09-Sep-2020 10:49:39.562,-0.1084, 0.9951,-0.0091,-0.0330,-0.0249, 0.0363,-0.7682,-1.4960,-2.9252
09-Sep-2020 10:49:39.572,-0.1034, 0.9931,-0.0107,-0.0312,-0.0428, 0.0312,-0.7690,-1.4965,-2.9257
09-Sep-2020 10:49:39.582,-0.0975, 0.9906,-0.0117,-0.0302,-0.0495, 0.0299,-0.7702,-1.4969,-2.9265
09-Sep-2020 10:49:39.592,-0.0914, 0.9887,-0.0112,-0.0284,-0.0438, 0.0260,-0.7718,-1.4973,-2.9276
09-Sep-2020 10:49:39.602,-0.0815, 0.9897,-0.0133,-0.0238,-0.0436, 0.0233,-0.7734,-1.4977,-2.9287
09-Sep-2020 10:49:39.611,-0.0724, 0.9924,-0.0147,-0.0178,-0.0435, 0.0174,-0.7748,-1.4980,-2.9297
09-Sep-2020 10:49:39.622,-0.0673, 0.9937,-0.0113,-0.0189,-0.0419, 0.0163,-0.7761,-1.4983,-2.9306
09-Sep-2020 10:49:39.631,-0.0635, 0.9957,-0.0082,-0.0210,-0.0350, 0.0188,-0.7776,-1.4985,-2.9316
09-Sep-2020 10:49:39.642,-0.0606, 0.9964,-0.0054,-0.0268,-0.0348, 0.0144,-0.7791,-1.4988,-2.9327
09-Sep-2020 10:49:39.651,-0.0593, 0.9960,-0.0025,-0.0343,-0.0304, 0.0105,-0.7814,-1.4991,-2.9347
09-Sep-2020 10:49:39.661,-0.0586, 0.9959,-0.0005,-0.0428,-0.0282, 0.0079,-0.7847,-1.4995,-2.9377
09-Sep-2020 10:49:39.671,-0.0569, 0.9946, 0.0020,-0.0511,-0.0325, 0.0058,-0.7890,-1.4998,-2.9417
09-Sep-2020 10:49:39.681,-0.0552, 0.9945, 0.0021,-0.0556,-0.0401,-0.0010,-0.7944,-1.5002,-2.9468
09-Sep-2020 10:49:39.691,-0.0537, 0.9948,-0.0008,-0.0591,-0.0613,-0.0091,-0.8008,-1.5006,-2.9528
09-Sep-2020 10:49:39.702,-0.0524, 0.9956,-0.0005,-0.0577,-0.0801,-0.0164,-0.8084,-1.5009,-2.9597
09-Sep-2020 10:49:39.711,-0.0530, 0.9953, 0.0006,-0.0597,-0.0855,-0.0249,-0.8168,-1.5013,-2.9674
09-Sep-2020 10:49:39.721,-0.0529, 0.9921, 0.0005,-0.0573,-0.0881,-0.0339,-0.8263,-1.5015,-2.9760
09-Sep-2020 10:49:39.731,-0.0515, 0.9875, 0.0002,-0.0479,-0.0783,-0.0387,-0.8363,-1.5017,-2.9852
09-Sep-2020 10:49:39.741,-0.0470, 0.9874, 0.0027,-0.0377,-0.0681,-0.0402,-0.8459,-1.5018,-2.9940
09-Sep-2020 10:49:39.751,-0.0397, 0.9854, 0.0064,-0.0314,-0.0373,-0.0426,-0.8545,-1.5019,-3.0020
09-Sep-2020 10:49:39.761,-0.0317, 0.9837, 0.0098,-0.0276,-0.0044,-0.0515,-0.8626,-1.5018,-3.0097
09-Sep-2020 10:49:39.771,-0.0245, 0.9848, 0.0094,-0.0194, 0.0301,-0.0566,-0.8702,-1.5017,-3.0173
09-Sep-2020 10:49:39.781,-0.0188, 0.9879, 0.0073,-0.0059, 0.0600,-0.0611,-0.8770,-1.5015,-3.0244
09-Sep-2020 10:49:39.791,-0.0160, 0.9927, 0.0054,-0.0020, 0.0796,-0.0624,-0.8825,-1.5011,-3.0305
09-Sep-2020 10:49:39.801,-0.0184, 0.9980, 0.0088,-0.0023, 0.1079,-0.0626,-0.8874,-1.5007,-3.0362
09-Sep-2020 10:49:39.810,-0.0230, 1.0029, 0.0112,-0.0027, 0.1297,-0.0549,-0.8919,-1.5004,-3.0418
09-Sep-2020 10:49:39.821,-0.0349, 1.0079, 0.0109,-0.0022, 0.1365,-0.0492,-0.8956,-1.5000,-3.0467
09-Sep-2020 10:49:39.830,-0.0450, 1.0116, 0.0108, 0.0013, 0.1252,-0.0375,-0.8987,-1.4998,-3.0511
09-Sep-2020 10:49:39.840,-0.0540, 1.0083, 0.0123,-0.0047, 0.0999,-0.0307,-0.9006,-1.4996,-3.0543
09-Sep-2020 10:49:39.851,-0.0623, 1.0015, 0.0152,-0.0097, 0.0645,-0.0187,-0.9025,-1.4995,-3.0571
09-Sep-2020 10:49:39.860,-0.0680, 0.9931, 0.0169,-0.0143, 0.0238,-0.0158,-0.9042,-1.4995,-3.0594
09-Sep-2020 10:49:39.870,-0.0741, 0.9908, 0.0177,-0.0110,-0.0116,-0.0025,-0.9060,-1.4996,-3.0615
09-Sep-2020 10:49:39.880,-0.0807, 0.9896, 0.0174,-0.0032,-0.0475,-0.0005,-0.9069,-1.4998,-3.0622
09-Sep-2020 10:49:39.890,-0.0865, 0.9861, 0.0156, 0.0065,-0.0827, 0.0074,-0.9070,-1.5000,-3.0619
09-Sep-2020 10:49:39.901,-0.0907, 0.9849, 0.0173, 0.0076,-0.1036, 0.0175,-0.9060,-1.5002,-3.0600
09-Sep-2020 10:49:39.910,-0.0981, 0.9854, 0.0145, 0.0093,-0.1207, 0.0132,-0.9046,-1.5004,-3.0575
09-Sep-2020 10:49:39.920,-0.1020, 0.9888, 0.0107, 0.0127,-0.1339, 0.0090,-0.9035,-1.5005,-3.0552
09-Sep-2020 10:49:39.930,-0.1043, 0.9959, 0.0102, 0.0184,-0.1292, 0.0059,-0.9025,-1.5006,-3.0529
09-Sep-2020 10:49:39.940,-0.1042, 1.0014, 0.0072, 0.0210,-0.1200, 0.0066,-0.9013,-1.5006,-3.0504
09-Sep-2020 10:49:39.950,-0.1048, 1.0025, 0.0052, 0.0178,-0.1116, 0.0039,-0.9001,-1.5006,-3.0479
09-Sep-2020 10:49:39.960,-0.1010, 0.9984, 0.0016, 0.0196,-0.1064, 0.0010,-0.8993,-1.5006,-3.0460
09-Sep-2020 10:49:39.970,-0.0947, 0.9922,-0.0005, 0.0156,-0.0966,-0.0044,-0.8987,-1.5006,-3.0444
09-Sep-2020 10:49:39.980,-0.0854, 0.9855,-0.0045, 0.0170,-0.0943,-0.0052,-0.8989,-1.5005,-3.0435
09-Sep-2020 10:49:39.989,-0.0742, 0.9863,-0.0075, 0.0227,-0.0885,-0.0058,-0.8990,-1.5004,-3.0427
09-Sep-2020 10:49:40.000,-0.0636, 0.9923,-0.0087, 0.0381,-0.0743,-0.0033,-0.8985,-1.5003,-3.0413
09-Sep-2020 10:49:40.009,-0.0584, 0.9991,-0.0076, 0.0509,-0.0581, 0.0011,-0.8963,-1.5001,-3.0383
09-Sep-2020 10:49:40.019,-0.0563, 1.0016,-0.0055, 0.0607,-0.0397, 0.0033,-0.8920,-1.4998,-3.0334
09-Sep-2020 10:49:40.029,-0.0556, 1.0004,-0.0043, 0.0625,-0.0297, 0.0126,-0.8862,-1.4994,-3.0271
09-Sep-2020 10:49:40.039,-0.0566, 1.0011,-0.0001, 0.0543,-0.0071, 0.0203,-0.8794,-1.4992,-3.0201
09-Sep-2020 10:49:40.049,-0.0594, 1.0017, 0.0018, 0.0435, 0.0113, 0.0205,-0.8726,-1.4990,-3.0132
09-Sep-2020 10:49:40.060,-0.0621, 1.0000, 0.0027, 0.0380, 0.0262, 0.0152,-0.8665,-1.4989,-3.0072
09-Sep-2020 10:49:40.069,-0.0630, 0.9968, 0.0033, 0.0343, 0.0401, 0.0090,-0.8613,-1.4988,-3.0021
09-Sep-2020 10:49:40.079,-0.0621, 0.9945, 0.0043, 0.0282, 0.0514,-0.0008,-0.8566,-1.4987,-2.9978
09-Sep-2020 10:49:40.089,-0.0585, 0.9940, 0.0085, 0.0209, 0.0578,-0.0116,-0.8531,-1.4985,-2.9948
09-Sep-2020 10:49:40.099,-0.0520, 0.9975, 0.0075, 0.0066, 0.0634,-0.0202,-0.8513,-1.4984,-2.9936
09-Sep-2020 10:49:40.109,-0.0467, 1.0003, 0.0054,-0.0045, 0.0726,-0.0212,-0.8514,-1.4982,-2.9943
09-Sep-2020 10:49:40.119,-0.0407, 1.0016, 0.0004,-0.0139, 0.0851,-0.0264,-0.8527,-1.4982,-2.9963
09-Sep-2020 10:49:40.129,-0.0362, 1.0014,-0.0040,-0.0269, 0.1005,-0.0350,-0.8556,-1.4982,-3.0000
09-Sep-2020 10:49:40.139,-0.0320, 0.9979,-0.0098,-0.0331, 0.1217,-0.0401,-0.8603,-1.4981,-3.0057
09-Sep-2020 10:49:40.149,-0.0274, 0.9943,-0.0183,-0.0315, 0.1329,-0.0461,-0.8661,-1.4981,-3.0127
09-Sep-2020 10:49:40.159,-0.0262, 0.9870,-0.0264,-0.0250, 0.1432,-0.0518,-0.8721,-1.4981,-3.0201
09-Sep-2020 10:49:40.169,-0.0255, 0.9803,-0.0312,-0.0168, 0.1527,-0.0507,-0.8778,-1.4979,-3.0272
09-Sep-2020 10:49:40.179,-0.0255, 0.9739,-0.0340,-0.0065, 0.1683,-0.0506,-0.8825,-1.4977,-3.0334
09-Sep-2020 10:49:40.189,-0.0270, 0.9728,-0.0364, 0.0059, 0.2088,-0.0498,-0.8857,-1.4975,-3.0383
09-Sep-2020 10:49:40.199,-0.0284, 0.9762,-0.0369, 0.0215, 0.2615,-0.0479,-0.8870,-1.4971,-3.0416
09-Sep-2020 10:49:40.209,-0.0309, 0.9829,-0.0396, 0.0375, 0.3214,-0.0457,-0.8858,-1.4967,-3.0431
09-Sep-2020 10:49:40.219,-0.0339, 0.9914,-0.0380, 0.0563, 0.3828,-0.0431,-0.8821,-1.4962,-3.0425
09-Sep-2020 10:49:40.228,-0.0400, 0.9960,-0.0307, 0.0594, 0.4401,-0.0410,-0.8757,-1.4957,-3.0399
09-Sep-2020 10:49:40.238,-0.0512, 0.9969,-0.0199, 0.0626, 0.4725,-0.0347,-0.8678,-1.4951,-3.0364
09-Sep-2020 10:49:40.248,-0.0652, 0.9964,-0.0089, 0.0615, 0.4853,-0.0309,-0.8588,-1.4945,-3.0321
09-Sep-2020 10:49:40.258,-0.0787, 0.9973,-0.0012, 0.0553, 0.4593,-0.0255,-0.8493,-1.4940,-3.0274
09-Sep-2020 10:49:40.268,-0.0912, 0.9997, 0.0050, 0.0452, 0.4027,-0.0229,-0.8404,-1.4935,-3.0230
09-Sep-2020 10:49:40.278,-0.0994, 0.9992, 0.0080, 0.0334, 0.3297,-0.0152,-0.8328,-1.4932,-3.0194
09-Sep-2020 10:49:40.288,-0.1051, 1.0009, 0.0081, 0.0192, 0.2677,-0.0058,-0.8269,-1.4929,-3.0167
09-Sep-2020 10:49:40.298,-0.1104, 0.9980, 0.0040, 0.0079, 0.2141, 0.0002,-0.8221,-1.4927,-3.0145
09-Sep-2020 10:49:40.308,-0.1147, 0.9970,-0.0020, 0.0023, 0.1793, 0.0077,-0.8181,-1.4927,-3.0126
09-Sep-2020 10:49:40.318,-0.1212, 0.9936,-0.0101, 0.0098, 0.1395, 0.0118,-0.8143,-1.4928,-3.0106
09-Sep-2020 10:49:40.328,-0.1282, 0.9909,-0.0148, 0.0135, 0.1150, 0.0162,-0.8100,-1.4928,-3.0077
09-Sep-2020 10:49:40.338,-0.1342, 0.9886,-0.0144, 0.0189, 0.0904, 0.0169,-0.8052,-1.4929,-3.0041
09-Sep-2020 10:49:40.348,-0.1391, 0.9855,-0.0134, 0.0230, 0.0670, 0.0159,-0.8000,-1.4929,-2.9998
09-Sep-2020 10:49:40.358,-0.1404, 0.9833,-0.0109, 0.0289, 0.0461, 0.0130,-0.7948,-1.4929,-2.9952
09-Sep-2020 10:49:40.368,-0.1373, 0.9846,-0.0071, 0.0272, 0.0307, 0.0180,-0.7896,-1.4928,-2.9904
09-Sep-2020 10:49:40.378,-0.1318, 0.9873,-0.0043, 0.0258, 0.0097, 0.0101,-0.7844,-1.4927,-2.9856
09-Sep-2020 10:49:40.388,-0.1224, 0.9904,-0.0057, 0.0277,-0.0219, 0.0094,-0.7819,-1.4927,-2.9831
09-Sep-2020 10:49:40.398,-0.1101, 0.9914,-0.0098, 0.0315,-0.0472, 0.0071,-0.7797,-1.4925,-2.9806
09-Sep-2020 10:49:40.408,-0.0998, 0.9944,-0.0134, 0.0325,-0.0600, 0.0063,-0.7775,-1.4924,-2.9780
09-Sep-2020 10:49:40.418,-0.0912, 0.9984,-0.0167, 0.0352,-0.0589, 0.0049,-0.7755,-1.4922,-2.9753
09-Sep-2020 10:49:40.428,-0.0829, 0.9998,-0.0196, 0.0346,-0.0443, 0.0036,-0.7733,-1.4919,-2.9726
09-Sep-2020 10:49:40.438,-0.0792, 1.0016,-0.0194, 0.0303,-0.0216, 0.0035,-0.7713,-1.4917,-2.9701
09-Sep-2020 10:49:40.448,-0.0764, 1.0036,-0.0193, 0.0302,-0.0019, 0.0052,-0.7695,-1.4915,-2.9680
09-Sep-2020 10:49:40.457,-0.0723, 1.0064,-0.0177, 0.0282, 0.0143, 0.0066,-0.7675,-1.4913,-2.9660
09-Sep-2020 10:49:40.468,-0.0688, 1.0056,-0.0155, 0.0174, 0.0155, 0.0076,-0.7655,-1.4911,-2.9642
09-Sep-2020 10:49:40.477,-0.0618, 1.0036,-0.0143, 0.0071, 0.0073, 0.0161,-0.7640,-1.4910,-2.9627
09-Sep-2020 10:49:40.487,-0.0536, 1.0011,-0.0135,-0.0008,-0.0035, 0.0210,-0.7625,-1.4911,-2.9612
09-Sep-2020 10:49:40.497,-0.0480, 0.9990,-0.0141,-0.0073,-0.0168, 0.0309,-0.7610,-1.4913,-2.9597
09-Sep-2020 10:49:40.507,-0.0449, 0.9992,-0.0182,-0.0058,-0.0201, 0.0364,-0.7592,-1.4915,-2.9577
09-Sep-2020 10:49:40.517,-0.0473, 0.9973,-0.0250,-0.0038,-0.0100, 0.0376,-0.7568,-1.4919,-2.9551
09-Sep-2020 10:49:40.527,-0.0517, 0.9940,-0.0303, 0.0029, 0.0041, 0.0419,-0.7537,-1.4922,-2.9520
09-Sep-2020 10:49:40.537,-0.0545, 0.9903,-0.0353, 0.0030, 0.0218, 0.0444,-0.7497,-1.4925,-2.9480
09-Sep-2020 10:49:40.547,-0.0569, 0.9880,-0.0366, 0.0072, 0.0460, 0.0420,-0.7451,-1.4928,-2.9435
09-Sep-2020 10:49:40.557,-0.0584, 0.9903,-0.0365, 0.0119, 0.0737, 0.0365,-0.7398,-1.4931,-2.9387
09-Sep-2020 10:49:40.567,-0.0576, 0.9921,-0.0342, 0.0135, 0.0980, 0.0340,-0.7343,-1.4933,-2.9338
09-Sep-2020 10:49:40.577,-0.0582, 0.9948,-0.0310, 0.0172, 0.1168, 0.0300,-0.7287,-1.4935,-2.9292
09-Sep-2020 10:49:40.587,-0.0580, 0.9948,-0.0276, 0.0155, 0.1256, 0.0223,-0.7229,-1.4936,-2.9245
09-Sep-2020 10:49:40.597,-0.0574, 0.9973,-0.0233, 0.0157, 0.1360, 0.0172,-0.7175,-1.4937,-2.9204
09-Sep-2020 10:49:40.607,-0.0552, 0.9989,-0.0219, 0.0107, 0.1362, 0.0160,-0.7125,-1.4938,-2.9167
09-Sep-2020 10:49:40.617,-0.0492, 1.0000,-0.0188, 0.0045, 0.1337, 0.0142,-0.7080,-1.4939,-2.9135
09-Sep-2020 10:49:40.627,-0.0428, 1.0011,-0.0177,-0.0022, 0.1247, 0.0154,-0.7040,-1.4940,-2.9109
09-Sep-2020 10:49:40.637,-0.0367, 0.9975,-0.0224,-0.0071, 0.1134, 0.0223,-0.7005,-1.4941,-2.9086
09-Sep-2020 10:49:40.647,-0.0315, 0.9919,-0.0253,-0.0084, 0.1098, 0.0312,-0.6971,-1.4944,-2.9062
09-Sep-2020 10:49:40.657,-0.0289, 0.9902,-0.0297,-0.0051, 0.1215, 0.0401,-0.6929,-1.4947,-2.9032
09-Sep-2020 10:49:40.667,-0.0299, 0.9914,-0.0338,-0.0056, 0.1387, 0.0483,-0.6876,-1.4950,-2.8990
09-Sep-2020 10:49:40.677,-0.0340, 0.9935,-0.0350, 0.0003, 0.1699, 0.0558,-0.6811,-1.4954,-2.8939
09-Sep-2020 10:49:40.686,-0.0403, 0.9947,-0.0364, 0.0038, 0.2018, 0.0669,-0.6731,-1.4958,-2.8876
09-Sep-2020 10:49:40.696,-0.0508, 0.9949,-0.0343, 0.0076, 0.2348, 0.0714,-0.6634,-1.4962,-2.8798
09-Sep-2020 10:49:40.706,-0.0598, 0.9955,-0.0291, 0.0138, 0.2522, 0.0739,-0.6523,-1.4966,-2.8710
09-Sep-2020 10:49:40.716,-0.0682, 0.9983,-0.0255, 0.0092, 0.2525, 0.0766,-0.6402,-1.4970,-2.8613
09-Sep-2020 10:49:40.726,-0.0728, 0.9992,-0.0229,-0.0030, 0.2319, 0.0783,-0.6280,-1.4974,-2.8515
09-Sep-2020 10:49:40.736,-0.0771, 1.0001,-0.0208,-0.0119, 0.2022, 0.0777,-0.6164,-1.4980,-2.8422
09-Sep-2020 10:49:40.746,-0.0818, 1.0014,-0.0243,-0.0243, 0.1710, 0.0786,-0.6056,-1.4986,-2.8335
09-Sep-2020 10:49:40.756,-0.0875, 1.0024,-0.0255,-0.0297, 0.1315, 0.0799,-0.5957,-1.4993,-2.8252
09-Sep-2020 10:49:40.766,-0.0980, 0.9991,-0.0278,-0.0301, 0.0994, 0.0760,-0.5864,-1.5000,-2.8171
09-Sep-2020 10:49:40.776,-0.1074, 0.9938,-0.0304,-0.0279, 0.0564, 0.0700,-0.5778,-1.5007,-2.8095
09-Sep-2020 10:49:40.786,-0.1112, 0.9894,-0.0295,-0.0322, 0.0167, 0.0610,-0.5703,-1.5014,-2.8026
09-Sep-2020 10:49:40.796,-0.1131, 0.9860,-0.0279,-0.0374,-0.0238, 0.0488,-0.5648,-1.5020,-2.7972
09-Sep-2020 10:49:40.806,-0.1140, 0.9855,-0.0260,-0.0432,-0.0488, 0.0340,-0.5617,-1.5026,-2.7939
09-Sep-2020 10:49:40.815,-0.1073, 0.9886,-0.0251,-0.0448,-0.0702, 0.0207,-0.5612,-1.5032,-2.7929
09-Sep-2020 10:49:40.825,-0.1025, 0.9898,-0.0237,-0.0426,-0.0755, 0.0055,-0.5630,-1.5037,-2.7940
09-Sep-2020 10:49:40.836,-0.1000, 0.9877,-0.0270,-0.0371,-0.0860,-0.0077,-0.5666,-1.5041,-2.7968
09-Sep-2020 10:49:40.845,-0.0973, 0.9868,-0.0289,-0.0298,-0.0950,-0.0210,-0.5716,-1.5043,-2.8010
09-Sep-2020 10:49:40.855,-0.0939, 0.9847,-0.0306,-0.0183,-0.1046,-0.0343,-0.5778,-1.5045,-2.8063
09-Sep-2020 10:49:40.865,-0.0922, 0.9866,-0.0304,-0.0086,-0.1214,-0.0481,-0.5853,-1.5044,-2.8126
09-Sep-2020 10:49:40.875,-0.0894, 0.9887,-0.0288,-0.0040,-0.1302,-0.0598,-0.5938,-1.5042,-2.8199
09-Sep-2020 10:49:40.886,-0.0849, 0.9880,-0.0229,-0.0003,-0.1416,-0.0654,-0.6032,-1.5039,-2.8281
09-Sep-2020 10:49:40.896,-0.0812, 0.9903,-0.0179, 0.0025,-0.1551,-0.0742,-0.6135,-1.5035,-2.8370
09-Sep-2020 10:49:40.905,-0.0765, 0.9936,-0.0142, 0.0014,-0.1791,-0.0759,-0.6244,-1.5030,-2.8463
09-Sep-2020 10:49:40.915,-0.0699, 0.9960,-0.0099, 0.0050,-0.1964,-0.0760,-0.6354,-1.5025,-2.8555
09-Sep-2020 10:49:40.925,-0.0649, 0.9982,-0.0093, 0.0009,-0.2088,-0.0746,-0.6462,-1.5020,-2.8644
09-Sep-2020 10:49:40.935,-0.0619, 1.0007,-0.0085, 0.0022,-0.2248,-0.0697,-0.6570,-1.5015,-2.8732
09-Sep-2020 10:49:40.945,-0.0605, 1.0024,-0.0091, 0.0011,-0.2441,-0.0683,-0.6674,-1.5011,-2.8813
09-Sep-2020 10:49:40.955,-0.0610, 1.0031,-0.0089,-0.0042,-0.2606,-0.0639,-0.6775,-1.5006,-2.8890
09-Sep-2020 10:49:40.965,-0.0639, 1.0040,-0.0053,-0.0108,-0.2783,-0.0600,-0.6876,-1.5002,-2.8964
09-Sep-2020 10:49:40.975,-0.0646, 1.0043,-0.0012,-0.0206,-0.2948,-0.0526,-0.6978,-1.4999,-2.9039
09-Sep-2020 10:49:40.985,-0.0653, 1.0040, 0.0025,-0.0263,-0.3161,-0.0524,-0.7084,-1.4998,-2.9115
09-Sep-2020 10:49:40.995,-0.0652, 1.0037, 0.0046,-0.0326,-0.3429,-0.0484,-0.7194,-1.4996,-2.9194
09-Sep-2020 10:49:41.005,-0.0646, 1.0016, 0.0019,-0.0368,-0.3751,-0.0475,-0.7309,-1.4996,-2.9275
09-Sep-2020 10:49:41.015,-0.0618, 0.9975, 0.0017,-0.0430,-0.4072,-0.0438,-0.7429,-1.4996,-2.9357
09-Sep-2020 10:49:41.025,-0.0580, 0.9940, 0.0026,-0.0475,-0.4215,-0.0464,-0.7552,-1.4996,-2.9440
09-Sep-2020 10:49:41.035,-0.0531, 0.9927, 0.0046,-0.0539,-0.4270,-0.0482,-0.7683,-1.4997,-2.9530
09-Sep-2020 10:49:41.045,-0.0478, 0.9923, 0.0012,-0.0569,-0.4284,-0.0509,-0.7815,-1.4998,-2.9619
09-Sep-2020 10:49:41.055,-0.0426, 0.9950,-0.0018,-0.0642,-0.4263,-0.0502,-0.7953,-1.4999,-2.9715
09-Sep-2020 10:49:41.065,-0.0366, 0.9957,-0.0060,-0.0667,-0.4127,-0.0485,-0.8098,-1.5000,-2.9818
09-Sep-2020 10:49:41.075,-0.0310, 0.9952,-0.0112,-0.0745,-0.3906,-0.0468,-0.8246,-1.5001,-2.9924
09-Sep-2020 10:49:41.084,-0.0280, 0.9962,-0.0203,-0.0700,-0.3520,-0.0436,-0.8393,-1.5003,-3.0033
09-Sep-2020 10:49:41.095,-0.0264, 0.9959,-0.0309,-0.0559,-0.3049,-0.0411,-0.8530,-1.5005,-3.0135
09-Sep-2020 10:49:41.104,-0.0275, 0.9964,-0.0366,-0.0449,-0.2420,-0.0363,-0.8647,-1.5006,-3.0222
09-Sep-2020 10:49:41.114,-0.0298, 0.9953,-0.0401,-0.0349,-0.1750,-0.0365,-0.8742,-1.5006,-3.0293
09-Sep-2020 10:49:41.124,-0.0347, 0.9948,-0.0378,-0.0222,-0.1098,-0.0347,-0.8819,-1.5006,-3.0353
09-Sep-2020 10:49:41.134,-0.0413, 0.9942,-0.0331,-0.0120,-0.0632,-0.0359,-0.8875,-1.5005,-3.0398
09-Sep-2020 10:49:41.144,-0.0468, 0.9943,-0.0278,-0.0028,-0.0387,-0.0344,-0.8915,-1.5004,-3.0432
09-Sep-2020 10:49:41.155,-0.0518, 0.9944,-0.0194,-0.0010,-0.0318,-0.0287,-0.8942,-1.5001,-3.0455
09-Sep-2020 10:49:41.164,-0.0581, 0.9956,-0.0096,-0.0069,-0.0380,-0.0315,-0.8963,-1.5000,-3.0472
09-Sep-2020 10:49:41.174,-0.0657, 0.9929,-0.0060,-0.0142,-0.0624,-0.0272,-0.8991,-1.4998,-3.0497
09-Sep-2020 10:49:41.184,-0.0724, 0.9909,-0.0024,-0.0141,-0.0882,-0.0299,-0.9027,-1.4997,-3.0526
09-Sep-2020 10:49:41.194,-0.0766, 0.9911, 0.0015,-0.0205,-0.1065,-0.0265,-0.9065,-1.4996,-3.0556
09-Sep-2020 10:49:41.204,-0.0804, 0.9924, 0.0031,-0.0209,-0.1293,-0.0258,-0.9107,-1.4996,-3.0587
09-Sep-2020 10:49:41.214,-0.0821, 0.9926, 0.0053,-0.0261,-0.1456,-0.0325,-0.9153,-1.4996,-3.0620
09-Sep-2020 10:49:41.224,-0.0803, 0.9918, 0.0066,-0.0265,-0.1625,-0.0324,-0.9210,-1.4996,-3.0662
09-Sep-2020 10:49:41.234,-0.0753, 0.9920, 0.0051,-0.0248,-0.1764,-0.0339,-0.9271,-1.4995,-3.0707
09-Sep-2020 10:49:41.244,-0.0692, 0.9928, 0.0032,-0.0237,-0.1823,-0.0338,-0.9335,-1.4995,-3.0754
09-Sep-2020 10:49:41.254,-0.0610, 0.9929, 0.0007,-0.0188,-0.1830,-0.0383,-0.9401,-1.4994,-3.0801
09-Sep-2020 10:49:41.263,-0.0514, 0.9932,-0.0012,-0.0225,-0.1634,-0.0389,-0.9467,-1.4993,-3.0850
09-Sep-2020 10:49:41.273,-0.0453, 0.9955, 0.0004,-0.0231,-0.1391,-0.0339,-0.9537,-1.4992,-3.0903
09-Sep-2020 10:49:41.283,-0.0395, 0.9957, 0.0025,-0.0236,-0.1084,-0.0289,-0.9603,-1.4991,-3.0956
09-Sep-2020 10:49:41.293,-0.0383, 0.9975, 0.0042,-0.0232,-0.0892,-0.0265,-0.9663,-1.4990,-3.1005
09-Sep-2020 10:49:41.304,-0.0377, 0.9955, 0.0045,-0.0206,-0.0780,-0.0233,-0.9719,-1.4990,-3.1052
09-Sep-2020 10:49:41.313,-0.0360, 0.9958, 0.0038,-0.0215,-0.0858,-0.0195,-0.9771,-1.4990,-3.1096
09-Sep-2020 10:49:41.323,-0.0370, 0.9964,-0.0003,-0.0236,-0.1000,-0.0211,-0.9820,-1.4990,-3.1136
09-Sep-2020 10:49:41.333,-0.0379, 0.9967,-0.0049,-0.0228,-0.1052,-0.0195,-0.9873,-1.4990,-3.1179
09-Sep-2020 10:49:41.343,-0.0409, 0.9959,-0.0097,-0.0205,-0.0981,-0.0158,-0.9923,-1.4990,-3.1219
09-Sep-2020 10:49:41.353,-0.0477, 0.9922,-0.0139,-0.0125,-0.0758,-0.0148,-0.9966,-1.4990,-3.1252
09-Sep-2020 10:49:41.363,-0.0567, 0.9874,-0.0164, 0.0012,-0.0332,-0.0173,-0.9994,-1.4991,-3.1273
09-Sep-2020 10:49:41.373,-0.0648, 0.9843,-0.0149, 0.0165, 0.0138,-0.0197,-1.0005,-1.4990,-3.1280
09-Sep-2020 10:49:41.383,-0.0737, 0.9858,-0.0104, 0.0298, 0.0663,-0.0259,-0.9995,-1.4989,-3.1272
09-Sep-2020 10:49:41.393,-0.0791, 0.9899,-0.0038, 0.0361, 0.1043,-0.0351,-0.9970,-1.4986,-3.1253
09-Sep-2020 10:49:41.403,-0.0812, 0.9964, 0.0043, 0.0398, 0.1280,-0.0416,-0.9939,-1.4982,-3.1232
09-Sep-2020 10:49:41.413,-0.0784, 1.0016, 0.0146, 0.0354, 0.1213,-0.0423,-0.9907,-1.4978,-3.1212
09-Sep-2020 10:49:41.423,-0.0727, 1.0054, 0.0229, 0.0256, 0.0977,-0.0439,-0.9880,-1.4973,-3.1197
09-Sep-2020 10:49:41.433,-0.0646, 1.0067, 0.0251, 0.0101, 0.0535,-0.0364,-0.9867,-1.4969,-3.1193
09-Sep-2020 10:49:41.443,-0.0582, 1.0113, 0.0234,-0.0033, 0.0091,-0.0288,-0.9869,-1.4966,-3.1200
09-Sep-2020 10:49:41.452,-0.0531, 1.0218, 0.0211,-0.0119,-0.0285,-0.0222,-0.9887,-1.4965,-3.1219
09-Sep-2020 10:49:41.462,-0.0509, 1.0204, 0.0254,-0.0133,-0.0341,-0.0162,-0.9913,-1.4964,-3.1243
09-Sep-2020 10:49:41.472,-0.0522, 1.0055, 0.0302,-0.0107,-0.0317,-0.0145,-0.9938,-1.4964,-3.1265
09-Sep-2020 10:49:41.482,-0.0512, 0.9960, 0.0320,-0.0028,-0.0206,-0.0246,-0.9961,-1.4964,-3.1284
09-Sep-2020 10:49:41.492,-0.0450, 0.9960, 0.0341, 0.0032,-0.0037,-0.0364,-0.9984,-1.4962,-3.1305
09-Sep-2020 10:49:41.502,-0.0375, 1.0102, 0.0371,-0.0000, 0.0304,-0.0462,-1.0009,-1.4960,-3.1330
09-Sep-2020 10:49:41.512,-0.0343, 1.0347, 0.0470, 0.0016, 0.0846,-0.0376,-1.0039,-1.4957,-3.1363
09-Sep-2020 10:49:41.522,-0.0386, 1.0370, 0.0553, 0.0181, 0.1147,-0.0157,-1.0055,-1.4955,-3.1387
09-Sep-2020 10:49:41.532,-0.0393, 1.0092, 0.0463, 0.0411, 0.0643, 0.0042,-1.0035,-1.4953,-3.1378
09-Sep-2020 10:49:41.542,-0.0421, 0.9906, 0.0294, 0.0371,-0.0542, 0.0201,-0.9983,-1.4952,-3.1332
09-Sep-2020 10:49:41.552,-0.0468, 0.9837, 0.0137, 0.0025,-0.1769, 0.0370,-0.9936,-1.4953,-3.1279
09-Sep-2020 10:49:41.562,-0.0518, 0.9769, 0.0042,-0.0299,-0.2476, 0.0574,-0.9924,-1.4957,-3.1249
09-Sep-2020 10:49:41.572,-0.0589, 0.9723,-0.0026,-0.0420,-0.2401, 0.0670,-0.9938,-1.4965,-3.1239
09-Sep-2020 10:49:41.582,-0.0631, 0.9662,-0.0128,-0.0430,-0.1941, 0.0589,-0.9961,-1.4974,-3.1238
09-Sep-2020 10:49:41.592,-0.0684, 0.9627,-0.0238,-0.0254,-0.1124, 0.0457,-0.9984,-1.4982,-3.1242
09-Sep-2020 10:49:41.602,-0.0734, 0.9604,-0.0379, 0.0095,-0.0140, 0.0301,-0.9990,-1.4989,-3.1236
09-Sep-2020 10:49:41.612,-0.0768, 0.9561,-0.0485, 0.0495, 0.0878, 0.0115,-0.9961,-1.4992,-3.1206
09-Sep-2020 10:49:41.622,-0.0813, 0.9483,-0.0557, 0.0829, 0.1794,-0.0127,-0.9890,-1.4992,-3.1144
09-Sep-2020 10:49:41.632,-0.0840, 0.9415,-0.0569, 0.1125, 0.2651,-0.0347,-0.9786,-1.4988,-3.1057
09-Sep-2020 10:49:41.642,-0.0877, 0.9417,-0.0502, 0.1374, 0.3435,-0.0550,-0.9657,-1.4980,-3.0954
09-Sep-2020 10:49:41.652,-0.0903, 0.9460,-0.0417, 0.1493, 0.4028,-0.0708,-0.9510,-1.4968,-3.0841
09-Sep-2020 10:49:41.662,-0.0928, 0.9527,-0.0308, 0.1522, 0.4392,-0.0817,-0.9360,-1.4955,-3.0730
09-Sep-2020 10:49:41.672,-0.0982, 0.9649,-0.0160, 0.1499, 0.4605,-0.0922,-0.9216,-1.4939,-3.0629
09-Sep-2020 10:49:41.681,-0.1080, 0.9835,-0.0019, 0.1583, 0.4779,-0.1065,-0.9083,-1.4923,-3.0542
09-Sep-2020 10:49:41.692,-0.1135, 1.0024, 0.0102, 0.1677, 0.4801,-0.1226,-0.8956,-1.4906,-3.0462
09-Sep-2020 10:49:41.701,-0.1163, 1.0170, 0.0208, 0.1622, 0.4535,-0.1343,-0.8835,-1.4886,-3.0388
09-Sep-2020 10:49:41.711,-0.1067, 1.0252, 0.0165, 0.1354, 0.3800,-0.1328,-0.8735,-1.4866,-3.0333
09-Sep-2020 10:49:41.721,-0.0917, 1.0266, 0.0029, 0.1053, 0.2650,-0.1174,-0.8668,-1.4848,-3.0303
09-Sep-2020 10:49:41.731,-0.0738, 1.0220,-0.0104, 0.0794, 0.1494,-0.0960,-0.8629,-1.4832,-3.0290
09-Sep-2020 10:49:41.741,-0.0585, 1.0193,-0.0212, 0.0629, 0.0593,-0.0764,-0.8608,-1.4820,-3.0284
09-Sep-2020 10:49:41.751,-0.0441, 1.0170,-0.0282, 0.0591, 0.0133,-0.0580,-0.8595,-1.4811,-3.0277
09-Sep-2020 10:49:41.761,-0.0266, 1.0136,-0.0327, 0.0515, 0.0098,-0.0284,-0.8576,-1.4803,-3.0260
09-Sep-2020 10:49:41.771,-0.0105, 1.0115,-0.0407, 0.0572, 0.0393, 0.0009,-0.8543,-1.4798,-3.0227
09-Sep-2020 10:49:41.781,-0.0087, 1.0129,-0.0496, 0.0772, 0.0769, 0.0278,-0.8482,-1.4794,-3.0169
09-Sep-2020 10:49:41.791,-0.0160, 1.0122,-0.0544, 0.0962, 0.1108, 0.0424,-0.8384,-1.4792,-3.0079
09-Sep-2020 10:49:41.801,-0.0286, 1.0096,-0.0494, 0.1201, 0.1524, 0.0578,-0.8255,-1.4788,-2.9961
09-Sep-2020 10:49:41.811,-0.0474, 1.0045,-0.0418, 0.1328, 0.1952, 0.0628,-0.8096,-1.4785,-2.9816
09-Sep-2020 10:49:41.821,-0.0658, 0.9924,-0.0373, 0.1385, 0.2315, 0.0532,-0.7919,-1.4780,-2.9658
09-Sep-2020 10:49:41.831,-0.0801, 0.9818,-0.0278, 0.1357, 0.2704, 0.0413,-0.7744,-1.4774,-2.9504
09-Sep-2020 10:49:41.841,-0.0892, 0.9753,-0.0221, 0.1232, 0.2923, 0.0327,-0.7577,-1.4768,-2.9364
09-Sep-2020 10:49:41.851,-0.0972, 0.9738,-0.0213, 0.1150, 0.2871, 0.0153,-0.7427,-1.4762,-2.9242
09-Sep-2020 10:49:41.861,-0.1016, 0.9797,-0.0161, 0.1071, 0.2867,-0.0015,-0.7295,-1.4755,-2.9138
09-Sep-2020 10:49:41.871,-0.1032, 0.9821,-0.0087, 0.0958, 0.2806,-0.0087,-0.7181,-1.4748,-2.9052
09-Sep-2020 10:49:41.881,-0.0990, 0.9922,-0.0050, 0.0904, 0.2738,-0.0132,-0.7082,-1.4741,-2.8980
09-Sep-2020 10:49:41.891,-0.0891, 1.0026,-0.0190, 0.0822, 0.2269,-0.0143,-0.6993,-1.4734,-2.8918
09-Sep-2020 10:49:41.900,-0.0801, 1.0102,-0.0377, 0.0742, 0.1498,-0.0137,-0.6918,-1.4728,-2.8866
09-Sep-2020 10:49:41.910,-0.0643, 1.0152,-0.0520, 0.0696, 0.0745,-0.0095,-0.6859,-1.4722,-2.8822
09-Sep-2020 10:49:41.920,-0.0489, 1.0156,-0.0680, 0.0794, 0.0293, 0.0083,-0.6810,-1.4716,-2.8780
09-Sep-2020 10:49:41.930,-0.0391, 1.0082,-0.0801, 0.0949, 0.0112, 0.0212,-0.6751,-1.4711,-2.8724
09-Sep-2020 10:49:41.940,-0.0323, 0.9931,-0.0872, 0.1144, 0.0349, 0.0374,-0.6674,-1.4706,-2.8648
09-Sep-2020 10:49:41.950,-0.0320, 0.9794,-0.0909, 0.1235, 0.0932, 0.0469,-0.6575,-1.4699,-2.8552
09-Sep-2020 10:49:41.960,-0.0406, 0.9727,-0.0925, 0.1302, 0.1765, 0.0394,-0.6461,-1.4693,-2.8446
09-Sep-2020 10:49:41.970,-0.0554, 0.9716,-0.0917, 0.1498, 0.2701, 0.0326,-0.6340,-1.4685,-2.8342
09-Sep-2020 10:49:41.980,-0.0709, 0.9759,-0.0849, 0.1799, 0.3599, 0.0252,-0.6205,-1.4676,-2.8233
09-Sep-2020 10:49:41.990,-0.0887, 0.9844,-0.0730, 0.1977, 0.4250, 0.0172,-0.6050,-1.4663,-2.8113
09-Sep-2020 10:49:42.000,-0.0979, 0.9921,-0.0626, 0.1942, 0.4328, 0.0051,-0.5888,-1.4648,-2.7992
09-Sep-2020 10:49:42.010,-0.0983, 1.0046,-0.0536, 0.1739, 0.4040,-0.0034,-0.5736,-1.4633,-2.7882
09-Sep-2020 10:49:42.020,-0.0964, 1.0134,-0.0505, 0.1439, 0.3358,-0.0023,-0.5604,-1.4618,-2.7790
09-Sep-2020 10:49:42.030,-0.0965, 1.0164,-0.0430, 0.1060, 0.2532,-0.0050,-0.5498,-1.4606,-2.7716
09-Sep-2020 10:49:42.040,-0.0975, 1.0126,-0.0412, 0.0704, 0.1689,-0.0112,-0.5421,-1.4597,-2.7664
09-Sep-2020 10:49:42.050,-0.0989, 1.0034,-0.0451, 0.0414, 0.0927,-0.0068,-0.5373,-1.4591,-2.7632
09-Sep-2020 10:49:42.060,-0.1019, 0.9943,-0.0537, 0.0146, 0.0295,-0.0009,-0.5341,-1.4587,-2.7610
09-Sep-2020 10:49:42.070,-0.1053, 0.9926,-0.0663, 0.0044,-0.0255,-0.0019,-0.5324,-1.4585,-2.7596
09-Sep-2020 10:49:42.080,-0.1055, 0.9920,-0.0811,-0.0001,-0.0561,-0.0036,-0.5322,-1.4585,-2.7591
09-Sep-2020 10:49:42.090,-0.1033, 0.9910,-0.0882, 0.0038,-0.0567,-0.0138,-0.5329,-1.4585,-2.7592
09-Sep-2020 10:49:42.099,-0.1008, 0.9882,-0.0938, 0.0103,-0.0367,-0.0210,-0.5342,-1.4584,-2.7600
09-Sep-2020 10:49:42.110,-0.0949, 0.9850,-0.0993, 0.0221,-0.0148,-0.0231,-0.5355,-1.4582,-2.7610
09-Sep-2020 10:49:42.119,-0.0924, 0.9839,-0.0994, 0.0259, 0.0191,-0.0299,-0.5365,-1.4580,-2.7618
09-Sep-2020 10:49:42.130,-0.0912, 0.9831,-0.0968, 0.0380, 0.0635,-0.0325,-0.5375,-1.4576,-2.7629
09-Sep-2020 10:49:42.139,-0.0920, 0.9844,-0.0914, 0.0528, 0.0995,-0.0344,-0.5376,-1.4572,-2.7637
09-Sep-2020 10:49:42.149,-0.0959, 0.9863,-0.0899, 0.0609, 0.1056,-0.0382,-0.5370,-1.4566,-2.7640
09-Sep-2020 10:49:42.159,-0.0990, 0.9877,-0.0872, 0.0504, 0.0880,-0.0401,-0.5362,-1.4559,-2.7643
09-Sep-2020 10:49:42.169,-0.1033, 0.9881,-0.0823, 0.0432, 0.0587,-0.0397,-0.5361,-1.4553,-2.7650
09-Sep-2020 10:49:42.179,-0.1078, 0.9906,-0.0809, 0.0293, 0.0266,-0.0430,-0.5365,-1.4547,-2.7660
09-Sep-2020 10:49:42.190,-0.1090, 0.9920,-0.0834, 0.0190,-0.0060,-0.0459,-0.5379,-1.4542,-2.7677
09-Sep-2020 10:49:42.199,-0.1069, 0.9918,-0.0849, 0.0111,-0.0357,-0.0458,-0.5402,-1.4538,-2.7699
09-Sep-2020 10:49:42.209,-0.1048, 0.9932,-0.0823, 0.0051,-0.0519,-0.0466,-0.5430,-1.4534,-2.7724
09-Sep-2020 10:49:42.219,-0.0977, 0.9965,-0.0811, 0.0002,-0.0587,-0.0445,-0.5463,-1.4531,-2.7752
09-Sep-2020 10:49:42.229,-0.0856, 0.9999,-0.0827,-0.0010,-0.0748,-0.0350,-0.5496,-1.4529,-2.7779
09-Sep-2020 10:49:42.243,-0.0777, 0.9991,-0.0794,-0.0062,-0.0924,-0.0243,-0.5527,-1.4527,-2.7802
09-Sep-2020 10:49:42.249,-0.0722, 1.0032,-0.0769,-0.0143,-0.0902,-0.0099,-0.5553,-1.4526,-2.7820
09-Sep-2020 10:49:42.259,-0.0696, 1.0109,-0.0801,-0.0202,-0.0777, 0.0047,-0.5573,-1.4526,-2.7830
09-Sep-2020 10:49:42.269,-0.0680, 1.0090,-0.0797,-0.0228,-0.0597, 0.0228,-0.5583,-1.4528,-2.7833
09-Sep-2020 10:49:42.278,-0.0704, 0.9985,-0.0748,-0.0178,-0.0241, 0.0350,-0.5582,-1.4531,-2.7825
09-Sep-2020 10:49:42.289,-0.0774, 0.9916,-0.0598, 0.0057, 0.0368, 0.0360,-0.5566,-1.4534,-2.7807
09-Sep-2020 10:49:42.298,-0.0883, 0.9986,-0.0334, 0.0636, 0.1462, 0.0332,-0.5531,-1.4535,-2.7776
09-Sep-2020 10:49:42.308,-0.0995, 1.0142, 0.0058, 0.1404, 0.2838, 0.0256,-0.5463,-1.4531,-2.7722
09-Sep-2020 10:49:42.318,-0.1011, 1.0258, 0.0456, 0.1981, 0.3706, 0.0271,-0.5354,-1.4521,-2.7640
09-Sep-2020 10:49:42.328,-0.0914, 1.0331, 0.0933, 0.1724, 0.3576, 0.0500,-0.5213,-1.4506,-2.7534
09-Sep-2020 10:49:42.338,-0.0780, 1.0485, 0.1154, 0.1072, 0.2024, 0.0778,-0.5070,-1.4494,-2.7425
09-Sep-2020 10:49:42.348,-0.0679, 1.0594, 0.0880, 0.0246,-0.1183, 0.0992,-0.4950,-1.4488,-2.7323
09-Sep-2020 10:49:42.358,-0.0691, 1.0551, 0.0697,-0.0900,-0.4665, 0.0902,-0.4879,-1.4491,-2.7240
09-Sep-2020 10:49:42.368,-0.0648, 1.0442, 0.0651,-0.2056,-0.7310, 0.0847,-0.4889,-1.4504,-2.7203
09-Sep-2020 10:49:42.378,-0.0584, 1.0504, 0.0420,-0.3152,-0.9281, 0.0849,-0.4976,-1.4526,-2.7218
09-Sep-2020 10:49:42.388,-0.0570, 1.0650, 0.0065,-0.4150,-1.0561, 0.0869,-0.5132,-1.4557,-2.7282
09-Sep-2020 10:49:42.398,-0.0593, 1.0715,-0.0209,-0.4460,-1.0447, 0.1066,-0.5341,-1.4597,-2.7387
09-Sep-2020 10:49:42.408,-0.0718, 1.0480,-0.0173,-0.3828,-0.8545, 0.1228,-0.5561,-1.4640,-2.7505
09-Sep-2020 10:49:42.418,-0.0672, 0.9976,-0.0347,-0.3038,-0.6987, 0.1378,-0.5735,-1.4679,-2.7594
09-Sep-2020 10:49:42.428,-0.0499, 0.9302,-0.0657,-0.2953,-0.7023, 0.1671,-0.5850,-1.4712,-2.7639
09-Sep-2020 10:49:42.438,-0.0473, 0.8591,-0.0848,-0.3328,-0.7964, 0.1817,-0.5941,-1.4746,-2.7659
09-Sep-2020 10:49:42.448,-0.0674, 0.8113,-0.0876,-0.3425,-0.8442, 0.1500,-0.6053,-1.4783,-2.7692
09-Sep-2020 10:49:42.458,-0.0738, 0.7893,-0.0685,-0.3009,-0.7446, 0.1021,-0.6207,-1.4820,-2.7763
09-Sep-2020 10:49:42.468,-0.0755, 0.8047,-0.0688,-0.2489,-0.5596, 0.0531,-0.6379,-1.4850,-2.7862
09-Sep-2020 10:49:42.478,-0.0802, 0.8524,-0.0852,-0.1850,-0.3594, 0.0087,-0.6550,-1.4873,-2.7978
09-Sep-2020 10:49:42.488,-0.0735, 0.8972,-0.0971,-0.1077,-0.1375,-0.0274,-0.6703,-1.4888,-2.8095
09-Sep-2020 10:49:42.498,-0.0669, 0.9310,-0.0993,-0.0182, 0.1038,-0.0672,-0.6815,-1.4895,-2.8194
09-Sep-2020 10:49:42.508,-0.0654, 0.9549,-0.1112, 0.0772, 0.2892,-0.1080,-0.6873,-1.4892,-2.8262
09-Sep-2020 10:49:42.518,-0.0656, 0.9719,-0.1233, 0.1621, 0.4051,-0.1249,-0.6875,-1.4879,-2.8293
09-Sep-2020 10:49:42.527,-0.0686, 0.9895,-0.1319, 0.2480, 0.4462,-0.1338,-0.6819,-1.4859,-2.8276
09-Sep-2020 10:49:42.538,-0.0753, 1.0117,-0.1313, 0.3518, 0.4436,-0.1387,-0.6706,-1.4832,-2.8207
09-Sep-2020 10:49:42.547,-0.0786, 1.0309,-0.1283, 0.4973, 0.4383,-0.1401,-0.6533,-1.4796,-2.8077
09-Sep-2020 10:49:42.557,-0.0763, 1.0369,-0.1244, 0.6477, 0.4181,-0.1294,-0.6285,-1.4748,-2.7872
09-Sep-2020 10:49:42.567,-0.0667, 1.0238,-0.1063, 0.7700, 0.3915,-0.1064,-0.5968,-1.4688,-2.7595
09-Sep-2020 10:49:42.578,-0.0588, 1.0031,-0.0769, 0.8529, 0.3829,-0.0800,-0.5611,-1.4618,-2.7275
09-Sep-2020 10:49:42.588,-0.0549, 0.9868,-0.0224, 0.8796, 0.4157,-0.0585,-0.5241,-1.4542,-2.6941
09-Sep-2020 10:49:42.597,-0.0410, 0.9534, 0.1478, 0.6771, 0.5168,-0.0383,-0.4889,-1.4464,-2.6629
09-Sep-2020 10:49:42.607,-0.0346, 0.9457, 0.2954, 0.2868, 0.5011,-0.0288,-0.4623,-1.4403,-2.6411
09-Sep-2020 10:49:42.617,-0.0335, 0.9910, 0.2271,-0.0079, 0.1994,-0.0341,-0.4492,-1.4376,-2.6327
09-Sep-2020 10:49:42.627,-0.0505, 1.0498, 0.1089,-0.1264,-0.2390,-0.0346,-0.4488,-1.4374,-2.6342
09-Sep-2020 10:49:42.637,-0.0607, 1.0515, 0.0253,-0.1606,-0.6429, 0.0004,-0.4565,-1.4384,-2.6397
09-Sep-2020 10:49:42.647,-0.0711, 1.0220,-0.0245,-0.1963,-0.9591, 0.0283,-0.4677,-1.4398,-2.6445
09-Sep-2020 10:49:42.657,-0.0785, 0.9962,-0.0523,-0.2296,-1.1393, 0.0433,-0.4815,-1.4417,-2.6488
09-Sep-2020 10:49:42.667,-0.0840, 0.9704,-0.0549,-0.2546,-1.1582, 0.0297,-0.4976,-1.4439,-2.6538
09-Sep-2020 10:49:42.677,-0.0658, 0.9468,-0.0721,-0.3076,-1.1318,-0.0030,-0.5163,-1.4462,-2.6610
09-Sep-2020 10:49:42.687,-0.0322, 0.9364,-0.0990,-0.3965,-1.1064,-0.0349,-0.5397,-1.4489,-2.6732
09-Sep-2020 10:49:42.696, 0.0012, 0.9391,-0.0994,-0.4886,-0.9848,-0.0474,-0.5694,-1.4521,-2.6922
09-Sep-2020 10:49:42.707, 0.0255, 0.9626,-0.0965,-0.5627,-0.7645,-0.0526,-0.6047,-1.4559,-2.7178
09-Sep-2020 10:49:42.716, 0.0434, 1.0000,-0.1209,-0.6125,-0.5415,-0.0531,-0.6441,-1.4601,-2.7499
09-Sep-2020 10:49:42.726, 0.0593, 1.0458,-0.1411,-0.6501,-0.3121,-0.0471,-0.6871,-1.4646,-2.7877
09-Sep-2020 10:49:42.736, 0.0653, 1.0892,-0.1511,-0.6525,-0.0656,-0.0509,-0.7333,-1.4692,-2.8310
09-Sep-2020 10:49:42.746, 0.0759, 1.1215,-0.1695,-0.5983, 0.1789,-0.0701,-0.7814,-1.4736,-2.8786
09-Sep-2020 10:49:42.757, 0.0824, 1.1221,-0.2043,-0.4629, 0.3453,-0.1107,-0.8285,-1.4772,-2.9277
09-Sep-2020 10:49:42.766, 0.0888, 1.0835,-0.2422,-0.2501, 0.3863,-0.1712,-0.8690,-1.4794,-2.9718
09-Sep-2020 10:49:42.776, 0.0887, 1.0187,-0.2767,-0.0070, 0.2783,-0.2199,-0.8972,-1.4797,-3.0038
09-Sep-2020 10:49:42.786, 0.0939, 0.9622,-0.2836, 0.2220, 0.1364,-0.2011,-0.9087,-1.4781,-3.0181
09-Sep-2020 10:49:42.796, 0.0919, 0.9271,-0.2736, 0.4083, 0.0175,-0.1410,-0.9013,-1.4752,-3.0120
09-Sep-2020 10:49:42.807, 0.0795, 0.9124,-0.2561, 0.5564,-0.0341,-0.0802,-0.8773,-1.4716,-2.9881
09-Sep-2020 10:49:42.816, 0.0568, 0.9225,-0.2129, 0.6750, 0.0539,-0.0662,-0.8410,-1.4674,-2.9514
09-Sep-2020 10:49:42.826, 0.0327, 0.9542,-0.1682, 0.7837, 0.3282,-0.0827,-0.7977,-1.4624,-2.9085
09-Sep-2020 10:49:42.836, 0.0234, 0.9753,-0.1519, 0.9024, 0.6497,-0.1214,-0.7504,-1.4563,-2.8642
09-Sep-2020 10:49:42.846, 0.0184, 0.9828,-0.1385, 1.0328, 0.9497,-0.1759,-0.7009,-1.4487,-2.8208
09-Sep-2020 10:49:42.856, 0.0145, 0.9827,-0.0892, 1.1469, 1.2483,-0.2354,-0.6511,-1.4396,-2.7802
09-Sep-2020 10:49:42.866, 0.0114, 0.9596, 0.1069, 1.0628, 1.6101,-0.2960,-0.6036,-1.4291,-2.7448
09-Sep-2020 10:49:42.876, 0.0380, 0.9400, 0.4191, 0.5608, 1.7665,-0.3293,-0.5654,-1.4189,-2.7222
09-Sep-2020 10:49:42.886, 0.0917, 0.9927, 0.3475, 0.0724, 1.2596,-0.3079,-0.5466,-1.4125,-2.7205
09-Sep-2020 10:49:42.896, 0.1196, 1.0434, 0.1120,-0.0507, 0.4568,-0.2263,-0.5467,-1.4101,-2.7331
09-Sep-2020 10:49:42.906, 0.1033, 1.0486,-0.0016, 0.0333,-0.1197,-0.1497,-0.5545,-1.4093,-2.7458
09-Sep-2020 10:49:42.916, 0.0650, 1.0235,-0.0203, 0.0694,-0.3323,-0.1089,-0.5619,-1.4082,-2.7522
09-Sep-2020 10:49:42.925, 0.0264, 0.9926,-0.0417, 0.0382,-0.3046,-0.1161,-0.5681,-1.4071,-2.7554
09-Sep-2020 10:49:42.935,-0.0009, 0.9662,-0.0902, 0.0262,-0.1859,-0.1515,-0.5752,-1.4061,-2.7596
09-Sep-2020 10:49:42.945,-0.0364, 0.9484,-0.1338, 0.0779,-0.0303,-0.2091,-0.5832,-1.4051,-2.7658
09-Sep-2020 10:49:42.955,-0.0722, 0.9538,-0.1479, 0.1789, 0.1478,-0.2780,-0.5907,-1.4033,-2.7731
09-Sep-2020 10:49:42.966,-0.0988, 0.9666,-0.1535, 0.2917, 0.3046,-0.3529,-0.5964,-1.4002,-2.7804
09-Sep-2020 10:49:42.975,-0.1196, 0.9812,-0.1480, 0.3963, 0.4496,-0.4232,-0.6003,-1.3959,-2.7873
09-Sep-2020 10:49:42.986,-0.1336, 0.9878,-0.1227, 0.4868, 0.5926,-0.4812,-0.6023,-1.3903,-2.7939
09-Sep-2020 10:49:42.995,-0.1423, 0.9931,-0.0956, 0.5374, 0.6945,-0.5325,-0.6026,-1.3836,-2.8002
09-Sep-2020 10:49:43.005,-0.1290, 0.9840,-0.0766, 0.5389, 0.7056,-0.5534,-0.6022,-1.3762,-2.8067
09-Sep-2020 10:49:43.015,-0.0832, 0.9760,-0.0563, 0.4625, 0.5904,-0.5336,-0.6023,-1.3688,-2.8139
09-Sep-2020 10:49:43.025,-0.0393, 0.9856,-0.0307, 0.3498, 0.4126,-0.4957,-0.6045,-1.3620,-2.8222
09-Sep-2020 10:49:43.035,-0.0172, 1.0089,-0.0069, 0.2587, 0.2529,-0.4775,-0.6097,-1.3563,-2.8316
09-Sep-2020 10:49:43.045,-0.0116, 1.0281,-0.0095, 0.2167, 0.0983,-0.4644,-0.6176,-1.3515,-2.8423
09-Sep-2020 10:49:43.055,-0.0174, 1.0346,-0.0435, 0.2019,-0.0623,-0.4591,-0.6273,-1.3470,-2.8533
09-Sep-2020 10:49:43.065,-0.0328, 1.0286,-0.0914, 0.1923,-0.2161,-0.4511,-0.6385,-1.3427,-2.8640
09-Sep-2020 10:49:43.075,-0.0540, 1.0298,-0.1293, 0.1846,-0.3303,-0.4424,-0.6506,-1.3385,-2.8743
09-Sep-2020 10:49:43.085,-0.0786, 1.0392,-0.1499, 0.1856,-0.3937,-0.4354,-0.6634,-1.3344,-2.8841
09-Sep-2020 10:49:43.095,-0.1024, 1.0534,-0.1476, 0.1842,-0.4077,-0.4425,-0.6763,-1.3303,-2.8933
09-Sep-2020 10:49:43.105,-0.1200, 1.0626,-0.1233, 0.1607,-0.3980,-0.4645,-0.6892,-1.3261,-2.9025
09-Sep-2020 10:49:43.114,-0.1209, 1.0771,-0.0733, 0.1152,-0.3852,-0.4761,-0.7028,-1.3219,-2.9124
09-Sep-2020 10:49:43.125,-0.0832, 1.0971,-0.0108, 0.0244,-0.4417,-0.4504,-0.7175,-1.3180,-2.9236
09-Sep-2020 10:49:43.135,-0.0203, 1.1281, 0.0431,-0.0981,-0.6279,-0.3871,-0.7340,-1.3149,-2.9360
09-Sep-2020 10:49:43.145, 0.0490, 1.1716, 0.0517,-0.2166,-0.9444,-0.3118,-0.7534,-1.3130,-2.9494
09-Sep-2020 10:49:43.154, 0.1116, 1.1993,-0.0065,-0.2993,-1.3138,-0.2345,-0.7766,-1.3125,-2.9637
09-Sep-2020 10:49:43.164, 0.1598, 1.1913,-0.0798,-0.3344,-1.5549,-0.1526,-0.8034,-1.3129,-2.9780
09-Sep-2020 10:49:43.175, 0.1934, 1.1652,-0.1221,-0.3677,-1.6158,-0.0711,-0.8317,-1.3141,-2.9913
09-Sep-2020 10:49:43.184, 0.2260, 1.1459,-0.1399,-0.4078,-1.5305, 0.0043,-0.8597,-1.3160,-3.0037
09-Sep-2020 10:49:43.194, 0.2560, 1.1532,-0.1378,-0.4067,-1.3034, 0.0783,-0.8864,-1.3187,-3.0156
09-Sep-2020 10:49:43.204, 0.3015, 1.1571,-0.1087,-0.3723,-1.0101, 0.1640,-0.9095,-1.3219,-3.0261
09-Sep-2020 10:49:43.214, 0.3706, 1.1538,-0.0625,-0.3698,-0.7799, 0.2970,-0.9270,-1.3255,-3.0338
09-Sep-2020 10:49:43.224, 0.4547, 1.1826,-0.0125,-0.4632,-0.6358, 0.5042,-0.9394,-1.3302,-3.0385
09-Sep-2020 10:49:43.234, 0.5289, 1.2483, 0.0130,-0.5954,-0.5118, 0.7794,-0.9487,-1.3370,-3.0415
09-Sep-2020 10:49:43.244, 0.5846, 1.2952, 0.0414,-0.7224,-0.3458, 1.0728,-0.9548,-1.3468,-3.0426
09-Sep-2020 10:49:43.254, 0.6055, 1.2984, 0.0868,-0.8504,-0.1603, 1.3262,-0.9567,-1.3597,-3.0410
09-Sep-2020 10:49:43.264, 0.5861, 1.2598, 0.1309,-1.0031,-0.0133, 1.4988,-0.9547,-1.3754,-3.0373
09-Sep-2020 10:49:43.274, 0.5356, 1.2033, 0.1735,-1.2011, 0.1277, 1.5725,-0.9522,-1.3933,-3.0346
09-Sep-2020 10:49:43.284, 0.4665, 1.1405, 0.2248,-1.4314, 0.3557, 1.5460,-0.9549,-1.4130,-3.0386
09-Sep-2020 10:49:43.294, 0.3552, 1.0907, 0.2172,-1.5628, 0.5964, 1.3712,-0.9704,-1.4337,-3.0579
09-Sep-2020 10:49:43.304, 0.2431, 1.0182, 0.1469,-1.5736, 0.6975, 1.1230,-1.0066,-1.4536,-3.1003
09-Sep-2020 10:49:43.314, 0.1476, 0.9144, 0.1020,-1.5811, 0.5825, 0.9670,-1.0707,-1.4713, 3.1116
09-Sep-2020 10:49:43.324, 0.0768, 0.8653, 0.0706,-1.6246, 0.2628, 0.8233,-1.1735,-1.4869, 3.0027
09-Sep-2020 10:49:43.334, 0.0044, 0.8266, 0.0541,-1.6956,-0.1700, 0.6801,-1.3360,-1.4998, 2.8372
09-Sep-2020 10:49:43.344,-0.0729, 0.8230, 0.0238,-1.7298,-0.6205, 0.5100,-1.5771,-1.5086, 2.5973
09-Sep-2020 10:49:43.354,-0.1366, 0.8634,-0.0593,-1.6096,-0.9857, 0.2932,-1.8735,-1.5110, 2.3065
09-Sep-2020 10:49:43.363,-0.1755, 0.9380,-0.1856,-1.2876,-1.3075, 0.0961,-2.1371,-1.5071, 2.0522
09-Sep-2020 10:49:43.373,-0.2001, 1.0500,-0.3176,-0.8699,-1.7377,-0.0723,-2.3101,-1.5002, 1.8919
09-Sep-2020 10:49:43.383,-0.2473, 1.1606,-0.3062,-0.5823,-2.1843,-0.1978,-2.4046,-1.4936, 1.8146
09-Sep-2020 10:49:43.393,-0.2749, 1.2278,-0.1315,-0.6041,-2.4860,-0.1792,-2.4575,-1.4879, 1.7833
09-Sep-2020 10:49:43.403,-0.2779, 1.2329, 0.1856,-0.9584,-2.4126, 0.0625,-2.5114,-1.4820, 1.7537
09-Sep-2020 10:49:43.413,-0.3454, 1.2188, 0.4259,-1.2727,-1.7384, 0.4325,-2.5986,-1.4745, 1.6899
09-Sep-2020 10:49:43.423,-0.4577, 1.2063, 0.3684,-1.0706,-0.7807, 0.7740,-2.7107,-1.4657, 1.5945
09-Sep-2020 10:49:43.433,-0.4934, 1.1721, 0.0751,-0.5445,-0.4209, 0.9883,-2.8197,-1.4588, 1.4930
09-Sep-2020 10:49:43.443,-0.4922, 1.1387,-0.0692,-0.0825,-0.6143, 1.0388,-2.9202,-1.4562, 1.3965
09-Sep-2020 10:49:43.453,-0.4536, 1.1009,-0.0271, 0.1491,-0.8699, 0.9549,-3.0163,-1.4571, 1.3060
09-Sep-2020 10:49:43.463,-0.3530, 1.0157,-0.0565, 0.2580,-1.2357, 0.9156,-3.1088,-1.4593, 1.2216
09-Sep-2020 10:49:43.473,-0.2574, 0.9604, 0.0039, 0.2965,-1.2544, 0.9398, 3.0786,-1.4617, 1.1374
09-Sep-2020 10:49:43.483,-0.1861, 0.9549, 0.0185, 0.3803,-1.0311, 0.9429, 2.9771,-1.4636, 1.0478
09-Sep-2020 10:49:43.493,-0.0712, 0.9423,-0.0390, 0.5310,-0.8520, 1.0234, 2.8720,-1.4653, 0.9524
09-Sep-2020 10:49:43.503, 0.0823, 0.9458,-0.0821, 0.7580,-0.7007, 1.2301, 2.7537,-1.4671, 0.8420
09-Sep-2020 10:49:43.513, 0.2590, 0.9594,-0.1146, 1.0105,-0.5365, 1.5995, 2.6064,-1.4684, 0.7009
09-Sep-2020 10:49:43.523, 0.4427, 0.9953,-0.1317, 1.2450,-0.3803, 2.1032, 2.4177,-1.4670, 0.5167
09-Sep-2020 10:49:43.533, 0.5197, 1.0276,-0.0721, 1.2759,-0.4707, 2.5436, 2.1982,-1.4597, 0.2999
09-Sep-2020 10:49:43.542, 0.4277, 1.0528, 0.0811, 1.0482,-0.7243, 2.6621, 1.9961,-1.4442, 0.1012
09-Sep-2020 10:49:43.552, 0.2113, 1.0727, 0.1838, 0.7614,-0.8217, 2.3705, 1.8521,-1.4231,-0.0370
09-Sep-2020 10:49:43.562, 0.0542, 0.9995, 0.1613, 0.6616,-0.5021, 1.8958, 1.7625,-1.4020,-0.1197
09-Sep-2020 10:49:43.572,-0.0490, 0.8995, 0.0576, 0.7413,-0.0081, 1.4757, 1.7034,-1.3844,-0.1747
09-Sep-2020 10:49:43.583,-0.0883, 0.7910, 0.0748, 0.7594, 0.7122, 1.2529, 1.6578,-1.3704,-0.2213
09-Sep-2020 10:49:43.592,-0.1374, 0.7406, 0.0969, 0.6607, 1.3013, 1.1020, 1.6247,-1.3583,-0.2622
09-Sep-2020 10:49:43.602,-0.1959, 0.7315, 0.0583, 0.4348, 1.5626, 0.9685, 1.6059,-1.3476,-0.2945
09-Sep-2020 10:49:43.613,-0.2199, 0.7068, 0.0299, 0.1907, 1.6777, 0.8260, 1.6013,-1.3380,-0.3152
09-Sep-2020 10:49:43.622,-0.2253, 0.6851,-0.0081,-0.0343, 1.6807, 0.6623, 1.6087,-1.3298,-0.3246
09-Sep-2020 10:49:43.632,-0.2373, 0.6596,-0.0238,-0.1820, 1.6274, 0.4667, 1.6252,-1.3232,-0.3248
09-Sep-2020 10:49:43.642,-0.2460, 0.6223, 0.0026,-0.2250, 1.5744, 0.2487, 1.6469,-1.3184,-0.3191
09-Sep-2020 10:49:43.652,-0.2385, 0.5893, 0.0298,-0.1569, 1.5256, 0.0212, 1.6700,-1.3156,-0.3114
09-Sep-2020 10:49:43.662,-0.2267, 0.5735, 0.0537,-0.0106, 1.4548,-0.2059, 1.6906,-1.3152,-0.3057
09-Sep-2020 10:49:43.672,-0.1980, 0.5629, 0.0664, 0.1619, 1.3098,-0.4344, 1.7062,-1.3172,-0.3045
09-Sep-2020 10:49:43.682,-0.1522, 0.5524, 0.0844, 0.3128, 1.1561,-0.6676, 1.7152,-1.3216,-0.3086
09-Sep-2020 10:49:43.692,-0.1061, 0.5471, 0.0933, 0.4251, 1.0098,-0.8923, 1.7182,-1.3286,-0.3174
09-Sep-2020 10:49:43.702,-0.0574, 0.5499, 0.0895, 0.4627, 0.8921,-1.0993, 1.7164,-1.3379,-0.3297
09-Sep-2020 10:49:43.712,-0.0030, 0.5697, 0.0844, 0.4476, 0.8030,-1.2766, 1.7123,-1.3493,-0.3430
09-Sep-2020 10:49:43.721, 0.0659, 0.6234, 0.0676, 0.4349, 0.7642,-1.4214, 1.7079,-1.3624,-0.3557
09-Sep-2020 10:49:43.732, 0.1450, 0.7025, 0.0698, 0.4400, 0.7942,-1.5149, 1.7035,-1.3769,-0.3680
09-Sep-2020 10:49:43.742, 0.2087, 0.7882, 0.1321, 0.4056, 0.9261,-1.5588, 1.6987,-1.3923,-0.3810
09-Sep-2020 10:49:43.752, 0.2738, 0.9201, 0.2641, 0.2918, 1.2052,-1.5564, 1.6961,-1.4081,-0.3930
09-Sep-2020 10:49:43.761, 0.3896, 1.1039, 0.4386, 0.0122, 1.5680,-1.4537, 1.7028,-1.4237,-0.3985
09-Sep-2020 10:49:43.771, 0.5798, 1.3278, 0.6223,-0.5508, 1.7847,-1.1128, 1.7334,-1.4378,-0.3833
09-Sep-2020 10:49:43.781, 0.8547, 1.5562, 0.6439,-1.1669, 1.5797,-0.4467, 1.8095,-1.4473,-0.3241
09-Sep-2020 10:49:43.791, 1.1087, 1.6790, 0.2614,-1.1339, 0.9459, 0.4423, 1.9211,-1.4480,-0.2273
09-Sep-2020 10:49:43.801, 1.0587, 1.6179,-0.2013,-0.3740, 0.4426, 1.1498, 1.9957,-1.4399,-0.1616
09-Sep-2020 10:49:43.811, 0.8279, 1.4415,-0.3546, 0.4038, 0.2513, 1.4727, 1.9912,-1.4282,-0.1708
09-Sep-2020 10:49:43.823, 0.6075, 1.2581,-0.3758, 0.8036, 0.0171, 1.5010, 1.9330,-1.4162,-0.2322
09-Sep-2020 10:49:43.833, 0.4088, 1.1438,-0.3040, 0.8262,-0.0766, 1.2780, 1.8583,-1.4046,-0.3081
09-Sep-2020 10:49:43.841, 0.1879, 1.1862,-0.2021, 0.6747, 0.0706, 0.7341, 1.7936,-1.3944,-0.3732
09-Sep-2020 10:49:43.851, 0.0048, 1.3947,-0.1456, 0.4594, 0.3403,-0.1261, 1.7500,-1.3887,-0.4182
09-Sep-2020 10:49:43.861,-0.1451, 1.7905,-0.1192, 0.2083, 0.6349,-1.3103, 1.7300,-1.3909,-0.4420
09-Sep-2020 10:49:43.871,-0.2005, 2.2598,-0.1669, 0.0207, 0.7894,-2.5533, 1.7361,-1.4041,-0.4421
09-Sep-2020 10:49:43.882,-0.1242, 2.5440,-0.1181, 0.2396, 1.3237,-3.4463, 1.7706,-1.4288,-0.4154
09-Sep-2020 10:49:43.892,-0.0009, 2.3025, 0.3374, 1.1554, 2.4929,-3.6012, 1.8200,-1.4625,-0.3797
09-Sep-2020 10:49:43.901, 0.1005, 1.3881, 0.8329, 1.0239, 1.5910,-3.0455, 1.8274,-1.4993,-0.3953
09-Sep-2020 10:49:43.911,-0.0537, 0.7509, 0.6364, 0.7797, 0.5990,-2.3938, 1.7920,-1.5311,-0.4467
09-Sep-2020 10:49:43.921,-0.1607, 0.5109, 0.4809, 0.6854, 0.4948,-1.6683, 1.6341,-1.5557,-0.6112
09-Sep-2020 10:49:43.931,-0.1892, 0.4008, 0.3895, 0.4313, 0.9162,-0.9847,-0.2536,-1.5648,-2.5043
09-Sep-2020 10:49:43.941,-0.1992, 0.3277, 0.1611,-0.0917, 1.0086,-0.4359,-0.8453,-1.5558,-3.1048
09-Sep-2020 10:49:43.950,-0.2003, 0.2942, 0.0569,-0.6282, 0.9232,-0.1249,-1.0355,-1.5527, 2.9781
09-Sep-2020 10:49:43.960,-0.2044, 0.3450, 0.0562,-1.0657, 0.9163,-0.0930,-1.3830,-1.5537, 2.6213
09-Sep-2020 10:49:43.970,-0.1746, 0.3744, 0.0402,-1.3590, 0.9650,-0.1438,-1.9533,-1.5517, 2.0418
09-Sep-2020 10:49:43.980,-0.1268, 0.3930,-0.0034,-1.5617, 1.0011,-0.2148,-2.3856,-1.5428, 1.5999
09-Sep-2020 10:49:43.991,-0.1346, 0.5033,-0.0656,-1.7261, 0.9452,-0.3039,-2.5972,-1.5291, 1.3782
09-Sep-2020 10:49:44.000,-0.1409, 0.6867,-0.1509,-1.8629, 0.7783,-0.3568,-2.6987,-1.5126, 1.2672
09-Sep-2020 10:49:44.010,-0.1659, 0.9045,-0.2817,-1.9194, 0.3376,-0.3833,-2.7546,-1.4943, 1.2037
09-Sep-2020 10:49:44.020,-0.1875, 1.1341,-0.3990,-1.8327,-0.3170,-0.3427,-2.7908,-1.4753, 1.1641
09-Sep-2020 10:49:44.030,-0.1382, 1.3271,-0.5492,-1.5014,-1.1818,-0.1443,-2.8216,-1.4572, 1.1365
09-Sep-2020 10:49:44.040,-0.1089, 1.4387,-0.6973,-0.9192,-2.0922, 0.1148,-2.8592,-1.4427, 1.1105
09-Sep-2020 10:49:44.050,-0.1966, 1.3832,-0.5754,-0.3167,-2.6403, 0.1777,-2.9054,-1.4342, 1.0847
09-Sep-2020 10:49:44.060,-0.2357, 1.1884,-0.3356, 0.2076,-2.5352, 0.0590,-2.9483,-1.4315, 1.0675
09-Sep-2020 10:49:44.070,-0.1894, 1.0084,-0.1613, 0.6348,-1.8703,-0.0630,-2.9752,-1.4336, 1.0654
09-Sep-2020 10:49:44.080,-0.1204, 0.8801,-0.0814, 0.9451,-1.1021,-0.1027,-2.9826,-1.4397, 1.0767
09-Sep-2020 10:49:44.090,-0.1002, 0.8060,-0.0904, 1.1683,-0.5429,-0.1470,-2.9743,-1.4488, 1.0963
09-Sep-2020 10:49:44.100,-0.1160, 0.7662,-0.1109, 1.3535,-0.1210,-0.2521,-2.9500,-1.4600, 1.1263
09-Sep-2020 10:49:44.110,-0.1280, 0.7545,-0.1086, 1.5431, 0.3371,-0.4050,-2.9005,-1.4727, 1.1773
09-Sep-2020 10:49:44.120,-0.1202, 0.7801,-0.0835, 1.6871, 0.9325,-0.5402,-2.8082,-1.4863, 1.2664
09-Sep-2020 10:49:44.130,-0.0969, 0.8186,-0.0616, 1.7708, 1.5411,-0.6262,-2.6508,-1.4996, 1.4150
09-Sep-2020 10:49:44.140,-0.0822, 0.8794,-0.0832, 1.8083, 2.0035,-0.6867,-2.4044,-1.5106, 1.6466
09-Sep-2020 10:49:44.150,-0.0736, 0.9537,-0.0738, 1.8163, 2.4590,-0.7473,-2.0630,-1.5164, 1.9686
09-Sep-2020 10:49:44.160,-0.0689, 1.0258,-0.0701, 1.8552, 2.9551,-0.8307,-1.6837,-1.5148, 2.3239
09-Sep-2020 10:49:44.169,-0.0795, 1.0794,-0.0582, 1.9921, 3.5476,-0.9551,-1.3548,-1.5055, 2.6239
09-Sep-2020 10:49:44.180,-0.0925, 1.0854,-0.0204, 2.2380, 4.2142,-1.0579,-1.1054,-1.4899, 2.8385
09-Sep-2020 10:49:44.190,-0.1180, 1.0420, 0.0410, 2.4731, 4.7653,-1.0879,-0.9173,-1.4691, 2.9854
09-Sep-2020 10:49:44.199,-0.1638, 0.9444, 0.6019, 2.0354, 5.4672,-1.1107,-0.7733,-1.4450, 3.0825
09-Sep-2020 10:49:44.210,-0.1679, 0.9312, 1.4282, 0.3109, 5.0068,-1.1652,-0.6856,-1.4233, 3.1167
09-Sep-2020 10:49:44.219,-0.1385, 1.0718, 0.5500,-0.6696, 2.6755,-1.1835,-0.6795,-1.4132, 3.0738
09-Sep-2020 10:49:44.229,-0.0920, 1.0752,-0.1509,-0.6408, 0.1990,-1.0121,-0.7322,-1.4102, 2.9936
09-Sep-2020 10:49:44.240,-0.0492, 1.0139,-0.2334,-0.1607,-1.1426,-0.7613,-0.7991,-1.4077, 2.9231
09-Sep-2020 10:49:44.250, 0.0065, 0.9958,-0.2801, 0.2388,-1.7260,-0.5403,-0.8479,-1.4033, 2.8847
09-Sep-2020 10:49:44.259, 0.0105, 0.9934,-0.2397, 0.4016,-1.7843,-0.4146,-0.8751,-1.3978, 2.8742
09-Sep-2020 10:49:44.269,-0.0094, 0.9940,-0.1472, 0.3640,-1.3680,-0.3864,-0.8903,-1.3921, 2.8765
09-Sep-2020 10:49:44.279,-0.0004, 1.0284,-0.1066, 0.2633,-0.6963,-0.4315,-0.9013,-1.3869, 2.8790
09-Sep-2020 10:49:44.289, 0.0201, 1.0549,-0.1443, 0.1732,-0.1129,-0.5537,-0.9112,-1.3819, 2.8761
09-Sep-2020 10:49:44.299, 0.0679, 1.0449,-0.2021, 0.1459, 0.2812,-0.6661,-0.9221,-1.3765, 2.8662
09-Sep-2020 10:49:44.309, 0.1233, 1.0546,-0.2232, 0.2084, 0.5680,-0.7681,-0.9329,-1.3703, 2.8524
09-Sep-2020 10:49:44.319, 0.1835, 1.0746,-0.1712, 0.4242, 1.0175,-0.8538,-0.9402,-1.3629, 2.8391
09-Sep-2020 10:49:44.329, 0.2505, 1.0713,-0.0784, 0.6941, 1.6064,-0.8596,-0.9368,-1.3536, 2.8321
09-Sep-2020 10:49:44.339, 0.3386, 1.0166, 0.1401, 0.6961, 2.1429,-0.7358,-0.9192,-1.3428, 2.8339
09-Sep-2020 10:49:44.349, 0.4884, 0.9787, 0.6044, 0.1359, 2.2753,-0.4469,-0.8946,-1.3331, 2.8374
09-Sep-2020 10:49:44.359, 0.6140, 1.0494, 0.8098,-0.6999, 1.1494,-0.1210,-0.8804,-1.3290, 2.8297
09-Sep-2020 10:49:44.369, 0.5415, 1.1316, 0.3347,-1.0081,-0.2673, 0.0656,-0.8929,-1.3322, 2.8053
09-Sep-2020 10:49:44.379, 0.4176, 1.0865, 0.0616,-1.1305,-0.8772, 0.1879,-0.9258,-1.3388, 2.7736
09-Sep-2020 10:49:44.389, 0.3639, 1.0778,-0.0164,-1.3454,-0.8258, 0.3345,-0.9687,-1.3470, 2.7381
09-Sep-2020 10:49:44.399, 0.3468, 1.1148,-0.0980,-1.5731,-0.4838, 0.5051,-1.0188,-1.3571, 2.6951
09-Sep-2020 10:49:44.408, 0.3655, 1.2427,-0.1297,-1.7267, 0.0251, 0.7089,-1.0754,-1.3693, 2.6420
09-Sep-2020 10:49:44.419, 0.4222, 1.4260,-0.1192,-1.8328, 0.5786, 0.9538,-1.1366,-1.3834, 2.5794
09-Sep-2020 10:49:44.428, 0.4640, 1.5562,-0.0524,-2.0191, 0.9394, 1.1985,-1.2031,-1.3994, 2.5060
09-Sep-2020 10:49:44.438, 0.4721, 1.5777, 0.1025,-2.3934, 0.9575, 1.3759,-1.2875,-1.4172, 2.4113
09-Sep-2020 10:49:44.448, 0.4267, 1.4521, 0.2102,-2.6653, 0.9258, 1.4582,-1.4169,-1.4357, 2.2709
09-Sep-2020 10:49:44.458, 0.3614, 1.2486, 0.1502,-2.6135, 1.0615, 1.5756,-1.6067,-1.4519, 2.0703
09-Sep-2020 10:49:44.473, 0.2938, 1.1233, 0.0232,-2.3796, 1.1689, 1.7510,-1.8434,-1.4637, 1.8214
09-Sep-2020 10:49:44.478, 0.1876, 1.0625,-0.0829,-2.1239, 1.1214, 1.8325,-2.1075,-1.4704, 1.5443
09-Sep-2020 10:49:44.488, 0.1030, 1.0456,-0.2099,-1.8228, 0.9100, 1.8174,-2.3755,-1.4716, 1.2639
09-Sep-2020 10:49:44.498, 0.0417, 1.0759,-0.3476,-1.4948, 0.5222, 1.7448,-2.6176,-1.4681, 1.0116
09-Sep-2020 10:49:44.508,-0.0413, 1.1062,-0.4102,-1.2229,-0.0136, 1.5933,-2.8193,-1.4616, 0.8037
09-Sep-2020 10:49:44.518,-0.1403, 1.1379,-0.3610,-1.0398,-0.4756, 1.3866,-2.9810,-1.4536, 0.6410
09-Sep-2020 10:49:44.528,-0.2443, 1.2570,-0.3553,-0.9395,-1.0468, 1.0894,-3.1066,-1.4446, 0.5194
