Timestamp,accelX,accelY,accelZ,gyroX(rad/s),gyroY(rad/s),gyroZ(rad/s),Roll(rads),Pitch(rads),Yaw(rads)
09-Sep-2020 10:30:48.511,-0.0439,-0.8529,-0.5136, 0.5189, 0.5364, 0.0043, 0.0000, 0.0000, 0.0000
09-Sep-2020 10:30:48.513,-0.0413,-0.8426,-0.5225, 0.5368, 0.5605, 0.0122,-0.1838, 0.9715,-1.3910
09-Sep-2020 10:30:48.523,-0.0458,-0.8313,-0.5248, 0.5319, 0.5582, 0.0104,-0.1799, 0.9767,-1.3890
09-Sep-2020 10:30:48.533,-0.0451,-0.8342,-0.5308, 0.5008, 0.5352,-0.0128,-0.1760, 0.9819,-1.3870
09-Sep-2020 10:30:48.543,-0.0342,-0.8341,-0.5373, 0.4625, 0.4623,-0.0262,-0.1720, 0.9869,-1.3855
09-Sep-2020 10:30:48.553,-0.0260,-0.8358,-0.5332, 0.3987, 0.3454,-0.0295,-0.1683, 0.9915,-1.3844
09-Sep-2020 10:30:48.563,-0.0322,-0.8438,-0.5157, 0.3225, 0.2402,-0.0389,-0.1656, 0.9955,-1.3836
09-Sep-2020 10:30:48.573,-0.0375,-0.8614,-0.4991, 0.2385, 0.1690,-0.0461,-0.1635, 0.9987,-1.3832
09-Sep-2020 10:30:48.583,-0.0338,-0.8733,-0.4975, 0.1715, 0.1215,-0.0337,-0.1619, 1.0011,-1.3832
09-Sep-2020 10:30:48.593,-0.0247,-0.8770,-0.5087, 0.1469, 0.0932,-0.0147,-0.1607, 1.0029,-1.3831
09-Sep-2020 10:30:48.602,-0.0261,-0.8785,-0.5161, 0.1651, 0.0922,-0.0069,-0.1601, 1.0044,-1.3828
09-Sep-2020 10:30:48.612,-0.0348,-0.8781,-0.5051, 0.1963, 0.1273,-0.0124,-0.1595, 1.0061,-1.3823
09-Sep-2020 10:30:48.622,-0.0411,-0.8857,-0.4859, 0.2186, 0.1831,-0.0259,-0.1587, 1.0080,-1.3818
09-Sep-2020 10:30:48.632,-0.0303,-0.9035,-0.4853, 0.2261, 0.2240,-0.0263,-0.1572, 1.0102,-1.3815
09-Sep-2020 10:30:48.642,-0.0090,-0.9103,-0.5051, 0.2399, 0.2332,-0.0128,-0.1552, 1.0125,-1.3811
09-Sep-2020 10:30:48.652, 0.0070,-0.9097,-0.5285, 0.2614, 0.2051, 0.0054,-0.1535, 1.0149,-1.3806
09-Sep-2020 10:30:48.662, 0.0030,-0.9052,-0.5340, 0.2816, 0.1667, 0.0028,-0.1522, 1.0175,-1.3796
09-Sep-2020 10:30:48.673, 0.0016,-0.8953,-0.5291, 0.3014, 0.1290,-0.0103,-0.1514, 1.0203,-1.3786
09-Sep-2020 10:30:48.682, 0.0023,-0.8958,-0.5048, 0.3079, 0.1136,-0.0243,-0.1509, 1.0233,-1.3777
09-Sep-2020 10:30:48.692,-0.0074,-0.9021,-0.4844, 0.3047, 0.1195,-0.0354,-0.1502, 1.0264,-1.3771
09-Sep-2020 10:30:48.702,-0.0107,-0.8984,-0.4795, 0.2897, 0.1272,-0.0477,-0.1494, 1.0294,-1.3768
09-Sep-2020 10:30:48.712,-0.0031,-0.8947,-0.4852, 0.2679, 0.1161,-0.0555,-0.1481, 1.0324,-1.3767
09-Sep-2020 10:30:48.722, 0.0063,-0.8962,-0.4998, 0.2548, 0.0830,-0.0617,-0.1469, 1.0351,-1.3769
09-Sep-2020 10:30:48.732, 0.0186,-0.9023,-0.4979, 0.2357, 0.0264,-0.0576,-0.1458, 1.0377,-1.3771
09-Sep-2020 10:30:48.742, 0.0222,-0.9062,-0.4880, 0.2070,-0.0411,-0.0421,-0.1454, 1.0401,-1.3774
09-Sep-2020 10:30:48.752, 0.0093,-0.8946,-0.4792, 0.1784,-0.1110,-0.0287,-0.1457, 1.0423,-1.3775
09-Sep-2020 10:30:48.762,-0.0032,-0.8802,-0.4600, 0.1515,-0.1549,-0.0320,-0.1469, 1.0441,-1.3774
09-Sep-2020 10:30:48.772,-0.0130,-0.8751,-0.4393, 0.1162,-0.1790,-0.0437,-0.1484, 1.0456,-1.3774
09-Sep-2020 10:30:48.782,-0.0269,-0.8778,-0.4169, 0.0649,-0.2074,-0.0827,-0.1498, 1.0469,-1.3778
09-Sep-2020 10:30:48.792,-0.0246,-0.8811,-0.3949, 0.0053,-0.2050,-0.1226,-0.1507, 1.0476,-1.3791
09-Sep-2020 10:30:48.801,-0.0210,-0.8811,-0.4019,-0.0425,-0.2006,-0.1471,-0.1508, 1.0479,-1.3814
09-Sep-2020 10:30:48.812,-0.0190,-0.8744,-0.4380,-0.0429,-0.1987,-0.1602,-0.1504, 1.0478,-1.3842
09-Sep-2020 10:30:48.822,-0.0070,-0.8653,-0.4747, 0.0027,-0.1809,-0.1701,-0.1496, 1.0476,-1.3873
09-Sep-2020 10:30:48.832,-0.0024,-0.8629,-0.4870, 0.0631,-0.1800,-0.1728,-0.1487, 1.0480,-1.3905
09-Sep-2020 10:30:48.841,-0.0042,-0.8658,-0.4784, 0.1017,-0.2045,-0.1712,-0.1479, 1.0488,-1.3935
09-Sep-2020 10:30:48.851,-0.0117,-0.8662,-0.4557, 0.1037,-0.2310,-0.1748,-0.1469, 1.0502,-1.3968
09-Sep-2020 10:30:48.862,-0.0196,-0.8649,-0.4379, 0.0786,-0.2506,-0.1825,-0.1462, 1.0517,-1.4002
09-Sep-2020 10:30:48.871,-0.0201,-0.8728,-0.4417, 0.0669,-0.2638,-0.1632,-0.1457, 1.0529,-1.4036
09-Sep-2020 10:30:48.881,-0.0164,-0.8678,-0.4579, 0.0712,-0.2724,-0.1267,-0.1454, 1.0544,-1.4068
09-Sep-2020 10:30:48.891,-0.0235,-0.8534,-0.4641, 0.0852,-0.3088,-0.1045,-0.1458, 1.0558,-1.4094
09-Sep-2020 10:30:48.901,-0.0481,-0.8429,-0.4550, 0.0763,-0.3606,-0.1008,-0.1472, 1.0570,-1.4113
09-Sep-2020 10:30:48.911,-0.0789,-0.8379,-0.4373, 0.0396,-0.4232,-0.1248,-0.1493, 1.0579,-1.4130
09-Sep-2020 10:30:48.921,-0.1056,-0.8383,-0.4158,-0.0197,-0.4809,-0.1521,-0.1516, 1.0585,-1.4152
09-Sep-2020 10:30:48.931,-0.1282,-0.8453,-0.3912,-0.0917,-0.5029,-0.1971,-0.1538, 1.0585,-1.4182
09-Sep-2020 10:30:48.941,-0.1427,-0.8590,-0.3722,-0.1587,-0.4298,-0.2426,-0.1551, 1.0580,-1.4223
09-Sep-2020 10:30:48.952,-0.1419,-0.8767,-0.3841,-0.1967,-0.2740,-0.2850,-0.1548, 1.0568,-1.4275
09-Sep-2020 10:30:48.961,-0.1153,-0.8822,-0.4475,-0.2004,-0.1190,-0.3089,-0.1523, 1.0554,-1.4336
09-Sep-2020 10:30:48.971,-0.0725,-0.8788,-0.5258,-0.1555,-0.0250,-0.3274,-0.1478, 1.0539,-1.4402
09-Sep-2020 10:30:48.981,-0.0366,-0.8829,-0.5952,-0.0730, 0.0084,-0.3375,-0.1422, 1.0529,-1.4470
09-Sep-2020 10:30:48.991,-0.0091,-0.8937,-0.6295, 0.0307,-0.0110,-0.3127,-0.1363, 1.0527,-1.4537
09-Sep-2020 10:30:49.001, 0.0052,-0.9015,-0.6220, 0.1191,-0.0690,-0.2489,-0.1312, 1.0534,-1.4597
09-Sep-2020 10:30:49.011, 0.0032,-0.9000,-0.5871, 0.1660,-0.1604,-0.1773,-0.1280, 1.0549,-1.4642
09-Sep-2020 10:30:49.021,-0.0132,-0.8862,-0.5347, 0.1684,-0.2426,-0.1419,-0.1270, 1.0567,-1.4672
09-Sep-2020 10:30:49.030,-0.0309,-0.8777,-0.4815, 0.1357,-0.3001,-0.1252,-0.1274, 1.0586,-1.4695
09-Sep-2020 10:30:49.041,-0.0353,-0.8836,-0.4431, 0.0868,-0.3250,-0.1052,-0.1286, 1.0601,-1.4715
09-Sep-2020 10:30:49.050,-0.0322,-0.8912,-0.4164, 0.0323,-0.3198,-0.0683,-0.1303, 1.0611,-1.4733
09-Sep-2020 10:30:49.060,-0.0355,-0.8887,-0.4069, 0.0008,-0.2930,-0.0313,-0.1325, 1.0615,-1.4744
09-Sep-2020 10:30:49.070,-0.0443,-0.8769,-0.4185, 0.0012,-0.2442,-0.0158,-0.1350, 1.0616,-1.4749
09-Sep-2020 10:30:49.080,-0.0408,-0.8684,-0.4394, 0.0464,-0.1859,-0.0163,-0.1373, 1.0617,-1.4751
09-Sep-2020 10:30:49.091,-0.0373,-0.8636,-0.4496, 0.1047,-0.1480,-0.0190,-0.1391, 1.0622,-1.4751
09-Sep-2020 10:30:49.100,-0.0422,-0.8622,-0.4557, 0.1696,-0.1244,-0.0321,-0.1407, 1.0633,-1.4750
09-Sep-2020 10:30:49.110,-0.0320,-0.8679,-0.4530, 0.2210,-0.0685,-0.0495,-0.1419, 1.0650,-1.4750
09-Sep-2020 10:30:49.120,-0.0213,-0.8789,-0.4330, 0.2652,-0.0019,-0.0572,-0.1424, 1.0673,-1.4752
09-Sep-2020 10:30:49.130,-0.0156,-0.8987,-0.4167, 0.2861, 0.0672,-0.0375,-0.1422, 1.0700,-1.4754
09-Sep-2020 10:30:49.140,-0.0134,-0.9111,-0.4195, 0.2828, 0.1450,-0.0061,-0.1418, 1.0729,-1.4752
09-Sep-2020 10:30:49.150,-0.0030,-0.9020,-0.4312, 0.2586, 0.1757, 0.0329,-0.1411, 1.0757,-1.4743
09-Sep-2020 10:30:49.160, 0.0095,-0.8884,-0.4456, 0.2236, 0.1530, 0.0868,-0.1408, 1.0782,-1.4727
09-Sep-2020 10:30:49.170,-0.0011,-0.8679,-0.4543, 0.1819, 0.0547, 0.1190,-0.1417, 1.0803,-1.4701
09-Sep-2020 10:30:49.180,-0.0193,-0.8468,-0.4633, 0.1415,-0.1048, 0.1327,-0.1440, 1.0820,-1.4669
09-Sep-2020 10:30:49.190,-0.0433,-0.8458,-0.4612, 0.1078,-0.2716, 0.1046,-0.1479, 1.0832,-1.4636
09-Sep-2020 10:30:49.200,-0.0516,-0.8511,-0.4460, 0.0918,-0.3619, 0.0593,-0.1529, 1.0842,-1.4609
09-Sep-2020 10:30:49.210,-0.0555,-0.8688,-0.4368, 0.1077,-0.3668, 0.0640,-0.1581, 1.0850,-1.4591
09-Sep-2020 10:30:49.220,-0.0766,-0.8892,-0.4111, 0.1478,-0.2726, 0.0824,-0.1634, 1.0860,-1.4572
09-Sep-2020 10:30:49.230,-0.0758,-0.8925,-0.4156, 0.2076,-0.1522, 0.1072,-0.1683, 1.0873,-1.4547
09-Sep-2020 10:30:49.240,-0.0702,-0.8734,-0.4224, 0.2711,-0.0156, 0.1255,-0.1726, 1.0892,-1.4515
09-Sep-2020 10:30:49.249,-0.0551,-0.8727,-0.4150, 0.3056, 0.1038, 0.1374,-0.1762, 1.0917,-1.4477
09-Sep-2020 10:30:49.259,-0.0442,-0.8960,-0.4389, 0.3106, 0.1598, 0.1480,-0.1790, 1.0944,-1.4434
09-Sep-2020 10:30:49.269,-0.0387,-0.9045,-0.4724, 0.3272, 0.1296, 0.1503,-0.1815, 1.0972,-1.4389
09-Sep-2020 10:30:49.280,-0.0315,-0.8964,-0.4949, 0.3535, 0.0878, 0.1610,-0.1844, 1.1002,-1.4342
09-Sep-2020 10:30:49.289,-0.0138,-0.8897,-0.5349, 0.4191, 0.0670, 0.1794,-0.1881, 1.1034,-1.4290
09-Sep-2020 10:30:49.299, 0.0094,-0.9026,-0.5657, 0.5271, 0.0865, 0.2216,-0.1927, 1.1072,-1.4231
09-Sep-2020 10:30:49.309, 0.0186,-0.9169,-0.5495, 0.6668, 0.1519, 0.2873,-0.1984, 1.1120,-1.4158
09-Sep-2020 10:30:49.319, 0.0065,-0.9229,-0.5004, 0.7872, 0.2479, 0.3515,-0.2055, 1.1179,-1.4062
09-Sep-2020 10:30:49.330,-0.0337,-0.9284,-0.4362, 0.8557, 0.3870, 0.3959,-0.2135, 1.1248,-1.3945
09-Sep-2020 10:30:49.339,-0.0651,-0.9154,-0.4007, 0.8637, 0.5311, 0.4222,-0.2218, 1.1323,-1.3811
09-Sep-2020 10:30:49.349,-0.0867,-0.8938,-0.4141, 0.8439, 0.6093, 0.4139,-0.2297, 1.1398,-1.3666
09-Sep-2020 10:30:49.359,-0.0890,-0.8940,-0.4406, 0.8510, 0.6474, 0.3615,-0.2368, 1.1470,-1.3522
09-Sep-2020 10:30:49.369,-0.0627,-0.8913,-0.4423, 0.9257, 0.6712, 0.3128,-0.2429, 1.1545,-1.3384
09-Sep-2020 10:30:49.379,-0.0351,-0.8831,-0.3770, 0.9998, 0.7570, 0.2941,-0.2484, 1.1627,-1.3251
09-Sep-2020 10:30:49.389,-0.0450,-0.8814,-0.3183, 1.0476, 0.8479, 0.2950,-0.2535, 1.1716,-1.3113
09-Sep-2020 10:30:49.399,-0.0564,-0.8712,-0.2793, 1.0838, 0.9248, 0.2688,-0.2584, 1.1809,-1.2969
09-Sep-2020 10:30:49.409,-0.0749,-0.8754,-0.2142, 1.0798, 0.9995, 0.2360,-0.2626, 1.1907,-1.2825
09-Sep-2020 10:30:49.419,-0.0809,-0.8808,-0.1517, 1.0256, 1.1017, 0.2041,-0.2657, 1.2004,-1.2685
09-Sep-2020 10:30:49.429,-0.0937,-0.8844,-0.1210, 0.9584, 1.1790, 0.1720,-0.2671, 1.2097,-1.2552
09-Sep-2020 10:30:49.439,-0.0831,-0.8698,-0.1229, 0.8920, 1.1818, 0.1604,-0.2668, 1.2185,-1.2431
09-Sep-2020 10:30:49.449,-0.0371,-0.8618,-0.1973, 0.9010, 1.1435, 0.2347,-0.2665, 1.2266,-1.2481
09-Sep-2020 10:30:49.459, 0.0049,-0.8945,-0.2356, 0.9556, 1.0487, 0.3469,-0.2688, 1.2347,-1.2506
09-Sep-2020 10:30:49.469, 0.0517,-0.9077,-0.1754, 0.9462, 0.9912, 0.4992,-0.2759, 1.2428,-1.2487
09-Sep-2020 10:30:49.479, 0.0541,-0.9181,-0.1503, 0.9111, 0.8845, 0.6772,-0.2886, 1.2504,-1.2416
09-Sep-2020 10:30:49.489, 0.0574,-0.9540,-0.1212, 0.8734, 0.7278, 0.8865,-0.3082, 1.2571,-1.2282
09-Sep-2020 10:30:49.499, 0.0517,-0.9866,-0.1034, 0.8390, 0.6001, 1.1197,-0.3361, 1.2625,-1.2075
09-Sep-2020 10:30:49.509, 0.0240,-1.0015,-0.1548, 0.8866, 0.4374, 1.3437,-0.3730, 1.2665,-1.1788
09-Sep-2020 10:30:49.518, 0.0027,-1.0011,-0.1991, 1.0055, 0.2657, 1.5281,-0.4195, 1.2695,-1.1415
09-Sep-2020 10:30:49.528,-0.0166,-0.9779,-0.2024, 1.1004, 0.0522, 1.6491,-0.4757, 1.2719,-1.0959
09-Sep-2020 10:30:49.538,-0.0557,-0.9585,-0.1958, 1.1698,-0.1107, 1.6885,-0.5395, 1.2735,-1.0442
09-Sep-2020 10:30:49.548,-0.1044,-0.9559,-0.1845, 1.2043,-0.2339, 1.6559,-0.6075, 1.2741,-0.9743
09-Sep-2020 10:30:49.558,-0.1484,-0.9554,-0.1301, 1.1584,-0.2307, 1.5433,-0.6763, 1.2738,-0.9046
09-Sep-2020 10:30:49.568,-0.2488,-0.9361,-0.1515, 1.0800,-0.2415, 1.3305,-0.7412, 1.2726,-0.8392
09-Sep-2020 10:30:49.578,-0.3823,-0.8965,-0.1728, 1.0196,-0.3555, 0.9597,-0.7988, 1.2712,-0.7815
09-Sep-2020 10:30:49.588,-0.3701,-0.9499,-0.0724, 0.8785,-0.4148, 0.6149,-0.8476, 1.2710,-0.7341
09-Sep-2020 10:30:49.598,-0.2919,-0.9982, 0.0201, 0.6773,-0.3738, 0.3787,-0.8863, 1.2718,-0.6978
09-Sep-2020 10:30:49.608,-0.2475,-1.0029, 0.0526, 0.4678,-0.3836, 0.2492,-0.9152, 1.2730,-0.6715
09-Sep-2020 10:30:49.618,-0.2314,-0.9992, 0.0642, 0.2791,-0.5146, 0.1680,-0.9364, 1.2738,-0.6534
09-Sep-2020 10:30:49.628,-0.1941,-1.0331, 0.1123, 0.0853,-0.6008, 0.1377,-0.9523, 1.2739,-0.6421
09-Sep-2020 10:30:49.638,-0.2008,-1.0606, 0.1230,-0.0943,-0.6977, 0.1268,-0.9634, 1.2733,-0.6368
09-Sep-2020 10:30:49.648,-0.2595,-1.0907, 0.1127,-0.2336,-0.8544, 0.1065,-0.9705, 1.2717,-0.6367
09-Sep-2020 10:30:49.658,-0.3281,-1.1134, 0.1611,-0.3596,-0.9189, 0.0557,-0.9749, 1.2695,-0.6410
09-Sep-2020 10:30:49.668,-0.3879,-1.0975, 0.1826,-0.5056,-0.7268, 0.0453,-0.9756, 1.2669,-0.6496
09-Sep-2020 10:30:49.678,-0.5411,-1.0240, 0.0358,-0.3394, 0.1478,-0.0731,-0.9706, 1.2640,-0.6617
09-Sep-2020 10:30:49.688,-0.2889,-1.0872, 0.0054,-0.1888, 0.5538,-0.0055,-0.9599, 1.2623,-0.6719
09-Sep-2020 10:30:49.697,-0.2142,-1.0602,-0.0387,-0.0263, 0.8353, 0.0832,-0.9498, 1.2613,-0.6768
09-Sep-2020 10:30:49.707,-0.2149,-1.0107,-0.1052, 0.1158, 0.6853, 0.0603,-0.9427, 1.2605,-0.6759
09-Sep-2020 10:30:49.717,-0.1922,-0.9979,-0.1027, 0.2126, 0.5005, 0.0144,-0.9400, 1.2606,-0.6715
09-Sep-2020 10:30:49.728,-0.2297,-0.9746,-0.0596, 0.2004, 0.3954,-0.0451,-0.9406, 1.2617,-0.6656
09-Sep-2020 10:30:49.738,-0.2496,-0.9678,-0.0344, 0.1428, 0.3256,-0.1014,-0.9411, 1.2632,-0.6610
09-Sep-2020 10:30:49.747,-0.2644,-1.0047,-0.0782, 0.1486, 0.2359,-0.1311,-0.9399, 1.2648,-0.6588
09-Sep-2020 10:30:49.757,-0.2460,-1.0281,-0.1386, 0.2376, 0.1903,-0.1029,-0.9394, 1.2666,-0.6570
09-Sep-2020 10:30:49.767,-0.2046,-1.0128,-0.1745, 0.3290, 0.1540,-0.0193,-0.9419, 1.2688,-0.6523
09-Sep-2020 10:30:49.778,-0.1725,-0.9980,-0.2071, 0.3998, 0.0314, 0.0601,-0.9488, 1.2709,-0.6436
09-Sep-2020 10:30:49.787,-0.1531,-0.9894,-0.2084, 0.4430,-0.1433, 0.1123,-0.9603, 1.2726,-0.6313
09-Sep-2020 10:30:49.797,-0.1666,-0.9910,-0.1830, 0.4461,-0.3509, 0.1554,-0.9758, 1.2741,-0.6166
09-Sep-2020 10:30:49.807,-0.2059,-0.9873,-0.1512, 0.4300,-0.5365, 0.1640,-0.9943, 1.2753,-0.6008
09-Sep-2020 10:30:49.817,-0.2585,-0.9665,-0.1259, 0.4024,-0.6708, 0.1097,-1.0146, 1.2762,-0.5852
09-Sep-2020 10:30:49.827,-0.2864,-0.9514,-0.1040, 0.3444,-0.7999, 0.0156,-1.0346, 1.2773,-0.5713
09-Sep-2020 10:30:49.837,-0.2981,-0.9664,-0.1054, 0.2930,-0.9523,-0.0673,-1.0529, 1.2788,-0.5605
09-Sep-2020 10:30:49.847,-0.2910,-0.9894,-0.1290, 0.2841,-1.0967,-0.0985,-1.0701, 1.2808,-0.5524
09-Sep-2020 10:30:49.857,-0.2809,-1.0028,-0.1400, 0.3363,-1.1428,-0.0948,-1.0882, 1.2829,-0.5449
09-Sep-2020 10:30:49.867,-0.2856,-1.0043,-0.1284, 0.4201,-1.1252,-0.0947,-1.1085, 1.2853,-0.5356
09-Sep-2020 10:30:49.877,-0.3005,-1.0045,-0.0979, 0.5043,-1.0859,-0.1084,-1.1314, 1.2879,-0.5234
09-Sep-2020 10:30:49.887,-0.3080,-1.0143,-0.0483, 0.5591,-1.0467,-0.1219,-1.1566, 1.2909,-0.5084
09-Sep-2020 10:30:49.897,-0.3191,-1.0308,-0.0016, 0.5580,-1.0214,-0.1332,-1.1834, 1.2941,-0.4914
09-Sep-2020 10:30:49.907,-0.3462,-1.0501, 0.0296, 0.5218,-0.9807,-0.1482,-1.2103, 1.2973,-0.4740
09-Sep-2020 10:30:49.916,-0.3555,-1.0735, 0.0422, 0.4773,-0.8736,-0.1452,-1.2359, 1.3004,-0.4575
09-Sep-2020 10:30:49.927,-0.3369,-1.0910, 0.0426, 0.4127,-0.7571,-0.1217,-1.2595, 1.3032,-0.4421
09-Sep-2020 10:30:49.936,-0.3343,-1.0836, 0.0421, 0.3202,-0.6514,-0.1096,-1.2802, 1.3055,-0.4284
09-Sep-2020 10:30:49.947,-0.3448,-1.0775, 0.0322, 0.2072,-0.5568,-0.1434,-1.2971, 1.3074,-0.4177
09-Sep-2020 10:30:49.956,-0.3523,-1.0771, 0.0122, 0.0925,-0.4476,-0.2180,-1.3087, 1.3093,-0.4114
09-Sep-2020 10:30:49.967,-0.3417,-1.0658,-0.0117,-0.0079,-0.2964,-0.3005,-1.3147, 1.3116,-0.4098
09-Sep-2020 10:30:49.976,-0.3232,-1.0340,-0.0604,-0.0606,-0.1240,-0.3702,-1.3148, 1.3144,-0.4128
09-Sep-2020 10:30:49.986,-0.3067,-0.9923,-0.1845, 0.0157,-0.0654,-0.4367,-1.3108, 1.3178,-0.4183
09-Sep-2020 10:30:49.996,-0.2531,-0.9665,-0.2327, 0.1758,-0.0016,-0.4691,-1.3081, 1.3220,-0.4218
09-Sep-2020 10:30:50.006,-0.1962,-0.9406,-0.2356, 0.3430, 0.0380,-0.4289,-1.3103, 1.3268,-0.4195
09-Sep-2020 10:30:50.016,-0.1773,-0.8944,-0.2368, 0.4967,-0.0965,-0.3682,-1.3192, 1.3317,-0.4100
09-Sep-2020 10:30:50.026,-0.1810,-0.8696,-0.1878, 0.5774,-0.3197,-0.3229,-1.3365, 1.3364,-0.3933
09-Sep-2020 10:30:50.036,-0.1789,-0.8828,-0.1061, 0.5758,-0.4885,-0.2735,-1.3604, 1.3407,-0.3721
09-Sep-2020 10:30:50.046,-0.2076,-0.8904,-0.0356, 0.5117,-0.5579,-0.2266,-1.3871, 1.3444,-0.3496
09-Sep-2020 10:30:50.056,-0.2417,-0.8801, 0.0353, 0.4076,-0.6032,-0.1813,-1.4130, 1.3475,-0.3287
09-Sep-2020 10:30:50.066,-0.2636,-0.8797, 0.0915, 0.2694,-0.6114,-0.1284,-1.4356, 1.3498,-0.3116
09-Sep-2020 10:30:50.076,-0.2830,-0.8781, 0.1277, 0.0929,-0.5839,-0.0821,-1.4529, 1.3513,-0.3001
09-Sep-2020 10:30:50.086,-0.2951,-0.8828, 0.1313,-0.0614,-0.5467,-0.0673,-1.4627, 1.3521,-0.2961
09-Sep-2020 10:30:50.095,-0.3144,-0.8765, 0.1230,-0.1956,-0.4619,-0.0872,-1.4652, 1.3527,-0.2990
09-Sep-2020 10:30:50.106,-0.3116,-0.8679, 0.1165,-0.2952,-0.2879,-0.1177,-1.4608, 1.3533,-0.3082
09-Sep-2020 10:30:50.115,-0.2882,-0.8608, 0.0774,-0.3453,-0.1226,-0.1267,-1.4502, 1.3540,-0.3220
09-Sep-2020 10:30:50.125,-0.2776,-0.8422, 0.0199,-0.3471,-0.0727,-0.1395,-1.4356, 1.3548,-0.3383
09-Sep-2020 10:30:50.135,-0.2557,-0.8481,-0.0301,-0.2916,-0.0588,-0.1552,-1.4202, 1.3556,-0.3548
09-Sep-2020 10:30:50.145,-0.2353,-0.8660,-0.0802,-0.1693,-0.0645,-0.1446,-1.4070, 1.3566,-0.3689
09-Sep-2020 10:30:50.156,-0.2271,-0.8721,-0.1016,-0.0406,-0.1569,-0.1071,-1.3992, 1.3577,-0.3776
09-Sep-2020 10:30:50.165,-0.2431,-0.8853,-0.0959, 0.0570,-0.2779,-0.0710,-1.3983, 1.3586,-0.3802
09-Sep-2020 10:30:50.175,-0.2701,-0.9055,-0.0570, 0.1123,-0.3333,-0.0760,-1.4031, 1.3593,-0.3781
09-Sep-2020 10:30:50.185,-0.2993,-0.9180, 0.0150, 0.1197,-0.3070,-0.0897,-1.4110, 1.3602,-0.3734
09-Sep-2020 10:30:50.195,-0.3111,-0.9300, 0.0708, 0.0866,-0.2591,-0.0700,-1.4190, 1.3611,-0.3683
09-Sep-2020 10:30:50.205,-0.3132,-0.9306, 0.1120, 0.0217,-0.2643,-0.0261,-1.4253, 1.3619,-0.3646
09-Sep-2020 10:30:50.215,-0.3091,-0.9260, 0.1499,-0.0799,-0.2128, 0.0154,-1.4288, 1.3621,-0.3636
09-Sep-2020 10:30:50.225,-0.3181,-0.9096, 0.1412,-0.1964,-0.1889, 0.0091,-1.4275, 1.3618,-0.3671
09-Sep-2020 10:30:50.235,-0.2942,-0.9039, 0.1313,-0.3167,-0.1814,-0.0138,-1.4205, 1.3614,-0.3762
09-Sep-2020 10:30:50.246,-0.2883,-0.8977, 0.0979,-0.4007,-0.2484,-0.0339,-1.4079, 1.3610,-0.3910
09-Sep-2020 10:30:50.255,-0.2826,-0.9062, 0.0807,-0.4146,-0.2931,-0.0188,-1.3922, 1.3605,-0.4096
09-Sep-2020 10:30:50.265,-0.2661,-0.9268, 0.0791,-0.4018,-0.3072, 0.0310,-1.3762, 1.3599,-0.4289
09-Sep-2020 10:30:50.275,-0.2642,-0.9148, 0.0700,-0.3801,-0.3244, 0.0733,-1.3615, 1.3587,-0.4470
09-Sep-2020 10:30:50.285,-0.2697,-0.8976, 0.0579,-0.3502,-0.3780, 0.0781,-1.3487, 1.3571,-0.4635
09-Sep-2020 10:30:50.295,-0.2498,-0.9032, 0.0621,-0.3093,-0.4239, 0.0694,-1.3379, 1.3555,-0.4784
09-Sep-2020 10:30:50.305,-0.2496,-0.9061, 0.0658,-0.2536,-0.4732, 0.0505,-1.3295, 1.3541,-0.4913
09-Sep-2020 10:30:50.315,-0.2646,-0.9268, 0.0886,-0.2073,-0.4791, 0.0010,-1.3239, 1.3529,-0.5019
09-Sep-2020 10:30:50.325,-0.2899,-0.9638, 0.0848,-0.1446,-0.3768,-0.0596,-1.3199, 1.3524,-0.5108
09-Sep-2020 10:30:50.334,-0.3034,-0.9834, 0.0337,-0.0134,-0.2330,-0.1078,-1.3171, 1.3525,-0.5174
09-Sep-2020 10:30:50.345,-0.2784,-0.9874, 0.0046, 0.1492,-0.1184,-0.1335,-1.3181, 1.3535,-0.5189
09-Sep-2020 10:30:50.354,-0.2370,-0.9889, 0.0057, 0.2698,-0.0782,-0.1516,-1.3244, 1.3550,-0.5136
09-Sep-2020 10:30:50.364,-0.2107,-1.0002,-0.0139, 0.3532,-0.1483,-0.1511,-1.3357, 1.3571,-0.5029
09-Sep-2020 10:30:50.374,-0.2294,-1.0248,-0.0206, 0.4415,-0.3049,-0.1585,-1.3519, 1.3593,-0.4880
09-Sep-2020 10:30:50.385,-0.2817,-1.0465, 0.0208, 0.5056,-0.4269,-0.2535,-1.3737, 1.3617,-0.4688
09-Sep-2020 10:30:50.394,-0.3068,-1.0730, 0.0711, 0.5247,-0.3886,-0.3722,-1.3992, 1.3651,-0.4470
09-Sep-2020 10:30:50.404,-0.3015,-1.1124, 0.0745, 0.5668,-0.2354,-0.4173,-1.4256, 1.3695,-0.4240
09-Sep-2020 10:30:50.414,-0.2822,-1.1422, 0.0543, 0.6719,-0.0753,-0.4156,-1.4534, 1.3742,-0.3979
09-Sep-2020 10:30:50.424,-0.2579,-1.1659, 0.0556, 0.7608, 0.0338,-0.4060,-1.4861, 1.3790,-0.3655
09-Sep-2020 10:30:50.434,-0.2248,-1.1872, 0.0848, 0.7540, 0.1176,-0.4019,-1.5236, 1.3834,-0.3269
09-Sep-2020 10:30:50.444,-0.2092,-1.1991, 0.1126, 0.6540, 0.1299,-0.3991,-1.5618, 1.3876,-0.2870
09-Sep-2020 10:30:50.454,-0.2132,-1.2087, 0.1118, 0.5033, 0.1030,-0.3809,-1.5961, 1.3914,-0.2508
09-Sep-2020 10:30:50.464,-0.2094,-1.2176, 0.1021, 0.3719, 0.1008,-0.3343,-1.6240, 1.3949,-0.2214
09-Sep-2020 10:30:50.474,-0.2225,-1.2087, 0.1045, 0.2770, 0.1230,-0.2715,-1.6454, 1.3978,-0.2151
09-Sep-2020 10:30:50.484,-0.2547,-1.2059, 0.1143, 0.2188, 0.1419,-0.2376,-1.6616, 1.4001,-0.2137
09-Sep-2020 10:30:50.494,-0.2798,-1.2011, 0.1358, 0.1673, 0.2013,-0.2585,-1.6743, 1.4021,-0.2156
09-Sep-2020 10:30:50.505,-0.2715,-1.1954, 0.1541, 0.1151, 0.3335,-0.3001,-1.6837, 1.4043,-0.2199
09-Sep-2020 10:30:50.514,-0.2254,-1.1981, 0.1540, 0.0540, 0.4735,-0.3171,-1.6893, 1.4070,-0.2267
09-Sep-2020 10:30:50.524,-0.1768,-1.1988, 0.1207, 0.0118, 0.6549,-0.3086,-1.6903, 1.4098,-0.2364
09-Sep-2020 10:30:50.533,-0.1333,-1.1841, 0.0754,-0.0137, 0.8348,-0.2825,-1.6869, 1.4127,-0.2487
09-Sep-2020 10:30:50.543,-0.0939,-1.1602, 0.0201,-0.0272, 0.9408,-0.2372,-1.6799, 1.4153,-0.2627
09-Sep-2020 10:30:50.553,-0.0432,-1.1310,-0.0442,-0.0104, 0.9519,-0.1422,-1.6707, 1.4175,-0.2776
09-Sep-2020 10:30:50.563, 0.0020,-1.0729,-0.0967, 0.0365, 0.8964, 0.0098,-1.6617, 1.4187,-0.2920
09-Sep-2020 10:30:50.574, 0.0266,-1.0030,-0.1208, 0.0903, 0.7443, 0.1804,-1.6554, 1.4184,-0.3041
09-Sep-2020 10:30:50.583, 0.0155,-0.9349,-0.1003, 0.0954, 0.4984, 0.3059,-1.6530, 1.4164,-0.3136
09-Sep-2020 10:30:50.593,-0.0164,-0.8749,-0.0376, 0.0280, 0.2381, 0.3491,-1.6524, 1.4132,-0.3235
09-Sep-2020 10:30:50.603,-0.0520,-0.8294, 0.0352,-0.0916, 0.0306, 0.3357,-1.6498, 1.4096,-0.3378
09-Sep-2020 10:30:50.613,-0.0755,-0.8067, 0.0902,-0.1964,-0.0870, 0.3003,-1.6425, 1.4062,-0.3589
09-Sep-2020 10:30:50.623,-0.0801,-0.7938, 0.1318,-0.2636,-0.0889, 0.2755,-1.6308, 1.4032,-0.3856
09-Sep-2020 10:30:50.633,-0.1055,-0.7746, 0.1705,-0.2816, 0.0086, 0.2308,-1.6158, 1.4004,-0.4154
09-Sep-2020 10:30:50.643,-0.1413,-0.7799, 0.1927,-0.2826, 0.1869, 0.1363,-1.5993, 1.3981,-0.4456
09-Sep-2020 10:30:50.653,-0.1600,-0.8124, 0.1774,-0.2664, 0.4501,-0.0134,-1.5814, 1.3967,-0.4752
09-Sep-2020 10:30:50.663,-0.1442,-0.8323, 0.1285,-0.2203, 0.7303,-0.1601,-1.5621, 1.3967,-0.5034
09-Sep-2020 10:30:50.673,-0.0996,-0.8411, 0.0561,-0.1556, 0.8987,-0.2580,-1.5425, 1.3981,-0.5291
09-Sep-2020 10:30:50.683,-0.0477,-0.8476,-0.0249,-0.0637, 0.9474,-0.2873,-1.5244, 1.4004,-0.5512
09-Sep-2020 10:30:50.693,-0.0166,-0.8455,-0.0840, 0.0440, 0.8813,-0.2810,-1.5108, 1.4030,-0.5681
09-Sep-2020 10:30:50.703,-0.0137,-0.8377,-0.1077, 0.1334, 0.7375,-0.2735,-1.5039, 1.4057,-0.5789
09-Sep-2020 10:30:50.713,-0.0141,-0.8378,-0.0959, 0.1837, 0.5585,-0.2560,-1.5036, 1.4084,-0.5841
09-Sep-2020 10:30:50.723,-0.0223,-0.8385,-0.0609, 0.1770, 0.3469,-0.2298,-1.5084, 1.4109,-0.5859
09-Sep-2020 10:30:50.733,-0.0416,-0.8394,-0.0167, 0.1302, 0.1789,-0.1800,-1.5151, 1.4131,-0.5877
09-Sep-2020 10:30:50.743,-0.0617,-0.8388, 0.0270, 0.0674, 0.0725,-0.1273,-1.5212, 1.4148,-0.5918
09-Sep-2020 10:30:50.752,-0.0747,-0.8454, 0.0638,-0.0077, 0.0019,-0.0787,-1.5245, 1.4160,-0.5996
09-Sep-2020 10:30:50.763,-0.0800,-0.8543, 0.0913,-0.0778,-0.0301,-0.0309,-1.5241, 1.4166,-0.6117
09-Sep-2020 10:30:50.772,-0.0874,-0.8661, 0.1119,-0.1277,-0.0161, 0.0103,-1.5196, 1.4167,-0.6281
09-Sep-2020 10:30:50.782,-0.0997,-0.8903, 0.1189,-0.1219, 0.0609, 0.0450,-1.5122, 1.4164,-0.6472
09-Sep-2020 10:30:50.792,-0.1163,-0.9151, 0.1196,-0.0948, 0.1882, 0.0658,-1.5043, 1.4158,-0.6660
09-Sep-2020 10:30:50.803,-0.1140,-0.9368, 0.1055,-0.0660, 0.3359, 0.0878,-1.4970, 1.4150,-0.6827
09-Sep-2020 10:30:50.812,-0.0989,-0.9453, 0.0850,-0.0436, 0.4114, 0.1076,-1.4902, 1.4139,-0.6972
09-Sep-2020 10:30:50.822,-0.0872,-0.9492, 0.0581,-0.0357, 0.4045, 0.1050,-1.4842, 1.4127,-0.7101
09-Sep-2020 10:30:50.832,-0.0727,-0.9585, 0.0391,-0.0442, 0.3402, 0.0759,-1.4787, 1.4115,-0.7224
09-Sep-2020 10:30:50.842,-0.0558,-0.9682, 0.0351,-0.0563, 0.2180, 0.0481,-1.4734, 1.4105,-0.7351
09-Sep-2020 10:30:50.852,-0.0526,-0.9752, 0.0449,-0.0874, 0.0824, 0.0145,-1.4683, 1.4099,-0.7488
09-Sep-2020 10:30:50.862,-0.0642,-0.9954, 0.0462,-0.1054,-0.0240,-0.0340,-1.4626, 1.4095,-0.7641
09-Sep-2020 10:30:50.872,-0.0556,-1.0300, 0.0219,-0.0600,-0.0685,-0.0685,-1.4567, 1.4096,-0.7806
09-Sep-2020 10:30:50.882,-0.0286,-1.0561, 0.0062, 0.0447,-0.0975,-0.0671,-1.4538, 1.4101,-0.7945
09-Sep-2020 10:30:50.892,-0.0138,-1.0789, 0.0047, 0.1837,-0.1273,-0.0454,-1.4575, 1.4107,-0.8019
09-Sep-2020 10:30:50.902,-0.0134,-1.0997, 0.0159, 0.3200,-0.1646,-0.0272,-1.4726, 1.4115,-0.7981
09-Sep-2020 10:30:50.912,-0.0242,-1.1103, 0.0331, 0.4281,-0.2114,-0.0127,-1.4948, 1.4120,-0.7872
09-Sep-2020 10:30:50.922,-0.0432,-1.1094, 0.0611, 0.4905,-0.2951, 0.0022,-1.5243, 1.4125,-0.7695
09-Sep-2020 10:30:50.932,-0.0735,-1.1134, 0.0934, 0.4975,-0.3970, 0.0042,-1.5585, 1.4127,-0.7477
09-Sep-2020 10:30:50.942,-0.1091,-1.1317, 0.1195, 0.4610,-0.4736,-0.0070,-1.5935, 1.4126,-0.7259
09-Sep-2020 10:30:50.951,-0.1317,-1.1632, 0.1369, 0.4033,-0.5112, 0.0172,-1.6270, 1.4123,-0.7064
09-Sep-2020 10:30:50.962,-0.1506,-1.1951, 0.1328, 0.3512,-0.4910, 0.0959,-1.6572, 1.4117,-0.6905
09-Sep-2020 10:30:50.971,-0.1997,-1.2055, 0.1230, 0.2990,-0.4670, 0.1850,-1.6833, 1.4102,-0.6786
09-Sep-2020 10:30:50.982,-0.2428,-1.2055, 0.1301, 0.2038,-0.4418, 0.2497,-1.7045, 1.4079,-0.6712
09-Sep-2020 10:30:50.992,-0.2830,-1.2049, 0.1282, 0.0757,-0.4406, 0.2734,-1.7189, 1.4051,-0.6703
09-Sep-2020 10:30:51.001,-0.3234,-1.2080, 0.1144,-0.0645,-0.4470, 0.2475,-1.7255, 1.4021,-0.6774
09-Sep-2020 10:30:51.012,-0.3477,-1.2191, 0.1025,-0.1922,-0.4152, 0.1609,-1.7242, 1.3997,-0.6923
09-Sep-2020 10:30:51.021,-0.3499,-1.2295, 0.0736,-0.3006,-0.3155, 0.0476,-1.7162, 1.3983,-0.7137
09-Sep-2020 10:30:51.031,-0.3073,-1.2336, 0.0074,-0.3339,-0.1650,-0.0667,-1.7023, 1.3981,-0.7399
09-Sep-2020 10:30:51.041,-0.2289,-1.2296,-0.0841,-0.2753,-0.0380,-0.1732,-1.6860, 1.3991,-0.7669
09-Sep-2020 10:30:51.051,-0.1350,-1.2161,-0.1649,-0.1515,-0.0010,-0.2255,-1.6721, 1.4009,-0.7902
09-Sep-2020 10:30:51.061,-0.0425,-1.1801,-0.2272, 0.0234,-0.0850,-0.1999,-1.6650, 1.4031,-0.8061
09-Sep-2020 10:30:51.071, 0.0269,-1.1243,-0.2448, 0.2219,-0.2611,-0.1153,-1.6686, 1.4049,-0.8119
09-Sep-2020 10:30:51.081, 0.0582,-1.0510,-0.1926, 0.3815,-0.5081, 0.0015,-1.6851, 1.4057,-0.8063
09-Sep-2020 10:30:51.091, 0.0239,-0.9724,-0.0798, 0.4407,-0.7700, 0.1028,-1.7124, 1.4051,-0.7921
09-Sep-2020 10:30:51.101,-0.0491,-0.9095, 0.0621, 0.3926,-0.9310, 0.1911,-1.7446, 1.4033,-0.7756
09-Sep-2020 10:30:51.111,-0.1237,-0.8602, 0.1806, 0.2665,-0.9522, 0.2776,-1.7739, 1.4006,-0.7635
09-Sep-2020 10:30:51.121,-0.2065,-0.8166, 0.2554, 0.0969,-0.8581, 0.3502,-1.7948, 1.3972,-0.7601
09-Sep-2020 10:30:51.131,-0.2953,-0.7849, 0.2932,-0.0867,-0.6779, 0.3773,-1.8042, 1.3935,-0.7674
09-Sep-2020 10:30:51.141,-0.3536,-0.7676, 0.2923,-0.2727,-0.4354, 0.3269,-1.8015, 1.3900,-0.7851
09-Sep-2020 10:30:51.150,-0.3591,-0.7553, 0.2500,-0.4324,-0.1616, 0.2258,-1.7877, 1.3873,-0.8116
09-Sep-2020 10:30:51.160,-0.3304,-0.7577, 0.1556,-0.5094, 0.0999, 0.1117,-1.7646, 1.3858,-0.8446
09-Sep-2020 10:30:51.170,-0.2924,-0.7730, 0.0360,-0.4899, 0.2873,-0.0020,-1.7364, 1.3855,-0.8802
09-Sep-2020 10:30:51.181,-0.2477,-0.7923,-0.0656,-0.3943, 0.3974,-0.0985,-1.7081, 1.3862,-0.9137
09-Sep-2020 10:30:51.190,-0.2157,-0.8155,-0.1409,-0.2696, 0.4389,-0.1811,-1.6842, 1.3875,-0.9416
09-Sep-2020 10:30:51.200,-0.1912,-0.8511,-0.1888,-0.1336, 0.4250,-0.2572,-1.6665, 1.3894,-0.9625
09-Sep-2020 10:30:51.210,-0.1598,-0.8839,-0.2058,-0.0194, 0.3596,-0.3112,-1.6564, 1.3920,-0.9759
09-Sep-2020 10:30:51.221,-0.1256,-0.9000,-0.2014, 0.0725, 0.2454,-0.3153,-1.6533, 1.3949,-0.9826
09-Sep-2020 10:30:51.230,-0.1019,-0.9119,-0.1804, 0.1249, 0.0827,-0.2710,-1.6564, 1.3979,-0.9841
09-Sep-2020 10:30:51.240,-0.0887,-0.9083,-0.1425, 0.1415,-0.0903,-0.1906,-1.6642, 1.4003,-0.9825
09-Sep-2020 10:30:51.250,-0.0959,-0.8853,-0.0835, 0.1238,-0.2693,-0.1030,-1.6744, 1.4019,-0.9800
09-Sep-2020 10:30:51.260,-0.1250,-0.8626,-0.0000, 0.0602,-0.4080,-0.0306,-1.6849, 1.4027,-0.9790
09-Sep-2020 10:30:51.270,-0.1668,-0.8476, 0.0859,-0.0482,-0.4665, 0.0202,-1.6927, 1.4029,-0.9821
09-Sep-2020 10:30:51.280,-0.2055,-0.8429, 0.1467,-0.1706,-0.4475, 0.0536,-1.6944, 1.4026,-0.9919
09-Sep-2020 10:30:51.290,-0.2346,-0.8500, 0.1628,-0.2848,-0.3643, 0.0728,-1.6887, 1.4022,-1.0089
09-Sep-2020 10:30:51.300,-0.2429,-0.8545, 0.1370,-0.3424,-0.2496, 0.0933,-1.6757, 1.4017,-1.0324
09-Sep-2020 10:30:51.310,-0.2364,-0.8527, 0.0884,-0.3522,-0.1618, 0.1161,-1.6582, 1.4010,-1.0594
09-Sep-2020 10:30:51.320,-0.2440,-0.8509, 0.0364,-0.3152,-0.1551, 0.1189,-1.6393, 1.4000,-1.0868
09-Sep-2020 10:30:51.330,-0.2582,-0.8510, 0.0096,-0.2703,-0.2030, 0.0811,-1.6226, 1.3989,-1.1119
09-Sep-2020 10:30:51.340,-0.2717,-0.8641, 0.0122,-0.2199,-0.2498, 0.0183,-1.6092, 1.3981,-1.1339
09-Sep-2020 10:30:51.350,-0.2801,-0.8871, 0.0292,-0.1809,-0.2827,-0.0514,-1.5993, 1.3979,-1.1528
09-Sep-2020 10:30:51.360,-0.2759,-0.9194, 0.0439,-0.1464,-0.2942,-0.1256,-1.5920, 1.3984,-1.1693
09-Sep-2020 10:30:51.370,-0.2559,-0.9547, 0.0460,-0.0898,-0.2457,-0.1775,-1.5869, 1.3995,-1.1836
09-Sep-2020 10:30:51.379,-0.2332,-0.9879, 0.0324,-0.0045,-0.1779,-0.2165,-1.5846, 1.4012,-1.1945
09-Sep-2020 10:30:51.389,-0.2051,-1.0236, 0.0118, 0.1153,-0.1040,-0.2331,-1.5866, 1.4032,-1.2003
09-Sep-2020 10:30:51.399,-0.1752,-1.0459,-0.0061, 0.2402,-0.0803,-0.2087,-1.5950, 1.4054,-1.1988
09-Sep-2020 10:30:51.410,-0.1682,-1.0541,-0.0050, 0.3293,-0.1335,-0.1473,-1.6108, 1.4073,-1.1896
09-Sep-2020 10:30:51.419,-0.1835,-1.0675, 0.0283, 0.3497,-0.2356,-0.0807,-1.6324, 1.4085,-1.1748
09-Sep-2020 10:30:51.429,-0.2095,-1.0807, 0.0744, 0.2993,-0.3391,-0.0199,-1.6563, 1.4089,-1.1588
09-Sep-2020 10:30:51.439,-0.2447,-1.0841, 0.1123, 0.2076,-0.4177, 0.0343,-1.6779, 1.4087,-1.1460
09-Sep-2020 10:30:51.449,-0.2731,-1.0995, 0.1274, 0.1276,-0.4388, 0.0655,-1.6946, 1.4080,-1.1391
09-Sep-2020 10:30:51.459,-0.2860,-1.1151, 0.1266, 0.0867,-0.4073, 0.0728,-1.7063, 1.4071,-1.1373
09-Sep-2020 10:30:51.469,-0.2920,-1.1271, 0.1216, 0.0800,-0.3294, 0.0609,-1.7151, 1.4062,-1.1381
09-Sep-2020 10:30:51.479,-0.2886,-1.1479, 0.1034, 0.0975,-0.2200, 0.0238,-1.7227, 1.4054,-1.1392
09-Sep-2020 10:30:51.489,-0.2720,-1.1628, 0.0701, 0.1453,-0.1375,-0.0194,-1.7307, 1.4049,-1.1389
09-Sep-2020 10:30:51.499,-0.2523,-1.1904, 0.0378, 0.2049,-0.0904,-0.0514,-1.7410, 1.4047,-1.1353
09-Sep-2020 10:30:51.509,-0.2348,-1.2251, 0.0139, 0.2580,-0.0904,-0.0517,-1.7545, 1.4047,-1.1280
09-Sep-2020 10:30:51.519,-0.2298,-1.2437, 0.0151, 0.2827,-0.1235,-0.0323,-1.7711, 1.4046,-1.1175
09-Sep-2020 10:30:51.529,-0.2296,-1.2612, 0.0297, 0.2651,-0.1429,-0.0365,-1.7891, 1.4042,-1.1058
09-Sep-2020 10:30:51.539,-0.2004,-1.2823, 0.0291, 0.2170,-0.1234,-0.0694,-1.8063, 1.4039,-1.0951
09-Sep-2020 10:30:51.549,-0.1368,-1.2889, 0.0022, 0.1815,-0.0891,-0.0954,-1.8211, 1.4040,-1.0865
09-Sep-2020 10:30:51.559,-0.0474,-1.2778,-0.0396, 0.1915,-0.0708,-0.0656,-1.8340, 1.4043,-1.0795
09-Sep-2020 10:30:51.568, 0.0393,-1.2339,-0.0673, 0.2550,-0.0777, 0.0492,-1.8469, 1.4042,-1.0723
09-Sep-2020 10:30:51.579, 0.0856,-1.1624,-0.0705, 0.3239,-0.1310, 0.2418,-1.8613, 1.4029,-1.0636
09-Sep-2020 10:30:51.588, 0.0825,-1.0729,-0.0426, 0.3436,-0.2342, 0.4590,-1.8764, 1.3995,-1.0547
09-Sep-2020 10:30:51.599, 0.0305,-0.9765, 0.0194, 0.2672,-0.3577, 0.6497,-1.8891, 1.3941,-1.0492
09-Sep-2020 10:30:51.608,-0.0533,-0.8917, 0.0969, 0.0892,-0.4603, 0.7730,-1.8951, 1.3870,-1.0517
09-Sep-2020 10:30:51.618,-0.1389,-0.8281, 0.1430,-0.1473,-0.5175, 0.8054,-1.8912, 1.3794,-1.0653
09-Sep-2020 10:30:51.628,-0.2042,-0.7935, 0.1495,-0.3575,-0.5309, 0.7423,-1.8769, 1.3722,-1.0900
09-Sep-2020 10:30:51.639,-0.2377,-0.7753, 0.1301,-0.5031,-0.4856, 0.6214,-1.8552, 1.3661,-1.1223
09-Sep-2020 10:30:51.648,-0.2498,-0.7791, 0.0918,-0.5621,-0.3880, 0.4481,-1.8295, 1.3614,-1.1583
09-Sep-2020 10:30:51.658,-0.2372,-0.7987, 0.0488,-0.5434,-0.2625, 0.2316,-1.8033, 1.3583,-1.1938
09-Sep-2020 10:30:51.668,-0.2069,-0.8347, 0.0005,-0.4429,-0.1229,-0.0010,-1.7795, 1.3572,-1.2255
09-Sep-2020 10:30:51.678,-0.1660,-0.8732,-0.0470,-0.2754, 0.0127,-0.2018,-1.7610, 1.3579,-1.2502
09-Sep-2020 10:30:51.688,-0.1297,-0.8963,-0.0847,-0.0614, 0.1235,-0.3360,-1.7503, 1.3603,-1.2655
09-Sep-2020 10:30:51.698,-0.0947,-0.9095,-0.0960, 0.1323, 0.1711,-0.3953,-1.7490, 1.3635,-1.2699
09-Sep-2020 10:30:51.708,-0.0664,-0.9025,-0.0773, 0.2614, 0.1276,-0.3924,-1.7569, 1.3670,-1.2644
09-Sep-2020 10:30:51.718,-0.0548,-0.8804,-0.0403, 0.3133, 0.0284,-0.3464,-1.7717, 1.3702,-1.2525
09-Sep-2020 10:30:51.728,-0.0566,-0.8526, 0.0161, 0.2887,-0.0977,-0.2694,-1.7899, 1.3728,-1.2379
09-Sep-2020 10:30:51.738,-0.0782,-0.8242, 0.0839, 0.1936,-0.2077,-0.1774,-1.8078, 1.3747,-1.2249
09-Sep-2020 10:30:51.748,-0.1116,-0.8038, 0.1407, 0.0455,-0.3081,-0.0772,-1.8213, 1.3759,-1.2175
09-Sep-2020 10:30:51.758,-0.1369,-0.7945, 0.1770,-0.1240,-0.3606, 0.0263,-1.8275, 1.3764,-1.2184
09-Sep-2020 10:30:51.767,-0.1667,-0.7905, 0.1816,-0.2791,-0.3809, 0.1136,-1.8248, 1.3764,-1.2290
09-Sep-2020 10:30:51.778,-0.1971,-0.7808, 0.1703,-0.4017,-0.3741, 0.1698,-1.8137, 1.3758,-1.2483
09-Sep-2020 10:30:51.788,-0.2232,-0.7760, 0.1375,-0.4853,-0.3721, 0.1726,-1.7960, 1.3751,-1.2742
09-Sep-2020 10:30:51.797,-0.2316,-0.7829, 0.0933,-0.5063,-0.3748, 0.1342,-1.7745, 1.3743,-1.3039
09-Sep-2020 10:30:51.807,-0.2301,-0.8014, 0.0504,-0.4673,-0.3882, 0.0701,-1.7524, 1.3739,-1.3342
09-Sep-2020 10:30:51.817,-0.2307,-0.8289, 0.0132,-0.3756,-0.4185,-0.0210,-1.7330, 1.3739,-1.3619
09-Sep-2020 10:30:51.827,-0.2281,-0.8671,-0.0184,-0.2441,-0.4476,-0.1229,-1.7191, 1.3746,-1.3804
09-Sep-2020 10:30:51.837,-0.2112,-0.9109,-0.0356,-0.0957,-0.4844,-0.2217,-1.7125, 1.3761,-1.3917
09-Sep-2020 10:30:51.847,-0.1807,-0.9518,-0.0381, 0.0620,-0.5228,-0.2803,-1.7142, 1.3783,-1.3948
09-Sep-2020 10:30:51.857,-0.1558,-0.9826,-0.0227, 0.2036,-0.5523,-0.2865,-1.7248, 1.3809,-1.3894
09-Sep-2020 10:30:51.867,-0.1485,-1.0057,-0.0014, 0.2916,-0.5860,-0.2554,-1.7431, 1.3833,-1.3763
09-Sep-2020 10:30:51.877,-0.1507,-1.0243, 0.0137, 0.3293,-0.6399,-0.2157,-1.7666, 1.3852,-1.3584
09-Sep-2020 10:30:51.887,-0.1629,-1.0281, 0.0227, 0.3190,-0.7343,-0.1669,-1.7925, 1.3865,-1.3385
09-Sep-2020 10:30:51.897,-0.1784,-1.0314, 0.0322, 0.2590,-0.8696,-0.1070,-1.8185, 1.3873,-1.3196
09-Sep-2020 10:30:51.907,-0.1981,-1.0426, 0.0528, 0.1687,-1.0287,-0.0390,-1.8421, 1.3876,-1.3044
09-Sep-2020 10:30:51.917,-0.2325,-1.0514, 0.0823, 0.0401,-1.1855, 0.0208,-1.8616, 1.3875,-1.2950
09-Sep-2020 10:30:51.927,-0.2834,-1.0704, 0.0983,-0.1115,-1.2771, 0.0476,-1.8751, 1.3871,-1.2932
09-Sep-2020 10:30:51.937,-0.3234,-1.1000, 0.0880,-0.2428,-1.3045, 0.0562,-1.8814, 1.3869,-1.2997
09-Sep-2020 10:30:51.947,-0.3400,-1.1290, 0.0522,-0.3407,-1.2867, 0.0574,-1.8813, 1.3870,-1.3130
09-Sep-2020 10:30:51.957,-0.3522,-1.1488,-0.0117,-0.4057,-1.2663, 0.0420,-1.8760, 1.3875,-1.3314
09-Sep-2020 10:30:51.967,-0.3521,-1.1687,-0.0887,-0.4410,-1.3034,-0.0114,-1.8674, 1.3882,-1.3530
09-Sep-2020 10:30:51.977,-0.3509,-1.1911,-0.1523,-0.4379,-1.3864,-0.1179,-1.8580, 1.3895,-1.3758
09-Sep-2020 10:30:51.986,-0.3478,-1.2190,-0.1976,-0.3719,-1.4630,-0.2679,-1.8510, 1.3918,-1.3969
09-Sep-2020 10:30:51.997,-0.3298,-1.2424,-0.2265,-0.2422,-1.5216,-0.4336,-1.8501, 1.3953,-1.4170
09-Sep-2020 10:30:52.006,-0.3055,-1.2585,-0.2200,-0.0701,-1.5487,-0.5561,-1.8589, 1.3999,-1.4278
09-Sep-2020 10:30:52.016,-0.2778,-1.2618,-0.1768, 0.0884,-1.5388,-0.6119,-1.8799, 1.4053,-1.4266
09-Sep-2020 10:30:52.026,-0.2572,-1.2439,-0.1145, 0.1728,-1.5126,-0.5922,-1.9118, 1.4107,-1.4142
09-Sep-2020 10:30:52.036,-0.2504,-1.2081,-0.0557, 0.1686,-1.4846,-0.5039,-1.9495, 1.4154,-1.3957
09-Sep-2020 10:30:52.046,-0.2574,-1.1513,-0.0091, 0.0791,-1.4931,-0.3845,-1.9865, 1.4193,-1.3733
09-Sep-2020 10:30:52.057,-0.2701,-1.0923, 0.0215,-0.0761,-1.5446,-0.2492,-2.0164, 1.4224,-1.3581
09-Sep-2020 10:30:52.066,-0.2885,-1.0399, 0.0415,-0.2671,-1.6099,-0.1208,-2.0344, 1.4249,-1.3554
09-Sep-2020 10:30:52.076,-0.3122,-0.9915, 0.0505,-0.4625,-1.6741,-0.0387,-2.0378, 1.4272,-1.3682
09-Sep-2020 10:30:52.086,-0.3360,-0.9512, 0.0506,-0.6063,-1.6930,-0.0072,-2.0272, 1.4295,-1.3957
09-Sep-2020 10:30:52.096,-0.3500,-0.9295, 0.0384,-0.6798,-1.6376,-0.0307,-2.0060, 1.4321,-1.4341
09-Sep-2020 10:30:52.106,-0.3420,-0.9178, 0.0184,-0.6710,-1.5319,-0.0847,-1.9789, 1.4350,-1.4779
09-Sep-2020 10:30:52.116,-0.3200,-0.9145,-0.0188,-0.5880,-1.3896,-0.1594,-1.9511, 1.4383,-1.5213
09-Sep-2020 10:30:52.126,-0.2702,-0.9212,-0.0658,-0.4315,-1.2454,-0.2270,-1.9282, 1.4418,-1.5584
09-Sep-2020 10:30:52.136,-0.2062,-0.9284,-0.0932,-0.2568,-1.1466,-0.2522,-1.9152, 1.4453,-1.5839
09-Sep-2020 10:30:52.146,-0.1462,-0.9299,-0.0911,-0.1177,-1.1179,-0.2313,-1.9140, 1.4484,-1.5968
09-Sep-2020 10:30:52.156,-0.1049,-0.9212,-0.0732,-0.0155,-1.1428,-0.1679,-1.9224, 1.4508,-1.5995
09-Sep-2020 10:30:52.166,-0.0871,-0.8947,-0.0318, 0.0355,-1.2156,-0.0642,-1.9373, 1.4524,-1.5960
09-Sep-2020 10:30:52.176,-0.0931,-0.8554, 0.0340, 0.0071,-1.2983, 0.0633,-1.9537, 1.4528,-1.5916
09-Sep-2020 10:30:52.185,-0.1239,-0.8136, 0.0970,-0.0963,-1.3756, 0.1781,-1.9649, 1.4521,-1.5934
09-Sep-2020 10:30:52.196,-0.1693,-0.7794, 0.1386,-0.2534,-1.4444, 0.2688,-1.9654, 1.4508,-1.6067
09-Sep-2020 10:30:52.205,-0.2083,-0.7489, 0.1533,-0.4266,-1.4823, 0.3305,-1.9522, 1.4492,-1.6345
09-Sep-2020 10:30:52.216,-0.2393,-0.7207, 0.1434,-0.5624,-1.4782, 0.3581,-1.9254, 1.4476,-1.6763
09-Sep-2020 10:30:52.225,-0.2724,-0.7014, 0.1093,-0.6317,-1.4650, 0.3568,-1.8887, 1.4460,-1.7282
09-Sep-2020 10:30:52.235,-0.2995,-0.6997, 0.0726,-0.6334,-1.4198, 0.3221,-1.8479, 1.4444,-1.7840
09-Sep-2020 10:30:52.246,-0.3153,-0.7012, 0.0441,-0.5840,-1.3700, 0.2716,-1.8083, 1.4428,-1.8381
09-Sep-2020 10:30:52.256,-0.3301,-0.7094, 0.0254,-0.5114,-1.3486, 0.2016,-1.7739, 1.4414,-1.8866
09-Sep-2020 10:30:52.265,-0.3450,-0.7346, 0.0184,-0.4286,-1.3325, 0.1229,-1.7464, 1.4403,-1.9279
09-Sep-2020 10:30:52.276,-0.3589,-0.7658, 0.0168,-0.3560,-1.3130, 0.0460,-1.7262, 1.4397,-1.9616
09-Sep-2020 10:30:52.285,-0.3699,-0.7951, 0.0259,-0.3012,-1.3097,-0.0330,-1.7123, 1.4397,-1.9889
09-Sep-2020 10:30:52.296,-0.3768,-0.8318, 0.0342,-0.2553,-1.2781,-0.1072,-1.7032, 1.4403,-2.0112
09-Sep-2020 10:30:52.305,-0.3793,-0.8714, 0.0380,-0.1984,-1.2090,-0.1866,-1.6979, 1.4416,-2.0293
09-Sep-2020 10:30:52.315,-0.3654,-0.9241, 0.0414,-0.1369,-1.1114,-0.2576,-1.6968, 1.4437,-2.0425
09-Sep-2020 10:30:52.325,-0.3416,-0.9833, 0.0274,-0.0614,-1.0023,-0.3185,-1.7001, 1.4463,-2.0503
09-Sep-2020 10:30:52.335,-0.3224,-1.0344, 0.0048, 0.0075,-0.9109,-0.3540,-1.7088, 1.4494,-2.0517
09-Sep-2020 10:30:52.345,-0.3011,-1.0743,-0.0156, 0.0531,-0.8757,-0.3455,-1.7228, 1.4528,-2.0467
09-Sep-2020 10:30:52.355,-0.2825,-1.1076,-0.0425, 0.0783,-0.9003,-0.2977,-1.7408, 1.4560,-2.0374
09-Sep-2020 10:30:52.365,-0.2678,-1.1289,-0.0611, 0.0939,-0.9968,-0.2052,-1.7615, 1.4587,-2.0257
09-Sep-2020 10:30:52.375,-0.2634,-1.1355,-0.0530, 0.0741,-1.1424,-0.0979,-1.7833, 1.4604,-2.0138
09-Sep-2020 10:30:52.385,-0.2698,-1.1340,-0.0190, 0.0078,-1.2797,-0.0085,-1.8029, 1.4611,-2.0054
09-Sep-2020 10:30:52.395,-0.2905,-1.1348, 0.0225,-0.0715,-1.3797, 0.0473,-1.8166, 1.4611,-2.0044
09-Sep-2020 10:30:52.405,-0.3098,-1.1465, 0.0574,-0.1362,-1.4078, 0.0712,-1.8233, 1.4608,-2.0115
09-Sep-2020 10:30:52.415,-0.3179,-1.1626, 0.0793,-0.1570,-1.3353, 0.0780,-1.8242, 1.4604,-2.0246
09-Sep-2020 10:30:52.425,-0.3137,-1.1698, 0.0773,-0.1311,-1.1939, 0.0764,-1.8226, 1.4599,-2.0396
09-Sep-2020 10:30:52.435,-0.2898,-1.1761, 0.0505,-0.0691,-1.0365, 0.0530,-1.8219, 1.4594,-2.0522
09-Sep-2020 10:30:52.444,-0.2440,-1.1872,-0.0025, 0.0207,-0.9218, 0.0170,-1.8256, 1.4590,-2.0589
09-Sep-2020 10:30:52.454,-0.1868,-1.1814,-0.0538, 0.1227,-0.9056,-0.0148,-1.8366, 1.4587,-2.0572
09-Sep-2020 10:30:52.464,-0.1359,-1.1737,-0.0790, 0.2213,-0.9928,-0.0245,-1.8565, 1.4584,-2.0463
09-Sep-2020 10:30:52.475,-0.0991,-1.1652,-0.0637, 0.2991,-1.1213,-0.0311,-1.8856, 1.4579,-2.0270
09-Sep-2020 10:30:52.484,-0.0809,-1.1476,-0.0216, 0.3651,-1.2317,-0.0479,-1.9223, 1.4571,-2.0013
09-Sep-2020 10:30:52.494,-0.0582,-1.1275, 0.0244, 0.4325,-1.2868,-0.0551,-1.9655, 1.4561,-1.9701
09-Sep-2020 10:30:52.505,-0.0425,-1.1027, 0.0816, 0.5065,-1.2877,-0.0149,-2.0140, 1.4547,-1.9341
09-Sep-2020 10:30:52.514,-0.0645,-1.0757, 0.1482, 0.5600,-1.2554, 0.0541,-2.0655, 1.4525,-1.8953
09-Sep-2020 10:30:52.524,-0.1151,-1.0475, 0.2166, 0.5578,-1.1812, 0.1439,-2.1153, 1.4491,-1.8577
09-Sep-2020 10:30:52.534,-0.1777,-1.0093, 0.2715, 0.4745,-1.0494, 0.2167,-2.1582, 1.4449,-1.8263
09-Sep-2020 10:30:52.544,-0.2371,-0.9701, 0.2993, 0.3177,-0.8783, 0.2361,-2.1891, 1.4405,-1.8056
09-Sep-2020 10:30:52.554,-0.2832,-0.9352, 0.2698, 0.2520,-0.5769, 0.1912,-2.2075, 1.4366,-1.7956
09-Sep-2020 10:30:52.564,-0.2584,-0.9223, 0.2005, 0.0608,-0.4205, 0.1159,-2.2189, 1.4335,-1.7899
09-Sep-2020 10:30:52.574,-0.2054,-0.9309, 0.0825,-0.1318,-0.3892, 0.0627,-2.2215, 1.4321,-1.7916
09-Sep-2020 10:30:52.584,-0.1572,-0.9415,-0.0349,-0.2208,-0.4023, 0.0618,-2.2153, 1.4323,-1.8017
09-Sep-2020 10:30:52.594,-0.1194,-0.9497,-0.1115,-0.2211,-0.4356, 0.1036,-2.2042, 1.4329,-1.8171
09-Sep-2020 10:30:52.603,-0.1099,-0.9501,-0.1550,-0.1828,-0.5154, 0.1429,-2.1911, 1.4333,-1.8347
09-Sep-2020 10:30:52.614,-0.1227,-0.9413,-0.1623,-0.1580,-0.6295, 0.1531,-2.1795, 1.4331,-1.8516
09-Sep-2020 10:30:52.623,-0.1415,-0.9266,-0.1379,-0.1707,-0.7330, 0.1231,-2.1700, 1.4327,-1.8675
09-Sep-2020 10:30:52.633,-0.1507,-0.9205,-0.0918,-0.2236,-0.8191, 0.0622,-2.1620, 1.4326,-1.8830
09-Sep-2020 10:30:52.643,-0.1385,-0.9239,-0.0579,-0.2841,-0.8775, 0.0067,-2.1538, 1.4332,-1.8994
09-Sep-2020 10:30:52.653,-0.1100,-0.9232,-0.0337,-0.3128,-0.9096,-0.0329,-2.1451, 1.4346,-1.9171
09-Sep-2020 10:30:52.663,-0.0878,-0.9212,-0.0072,-0.2999,-0.9266,-0.0377,-2.1362, 1.4364,-1.9352
09-Sep-2020 10:30:52.673,-0.0752,-0.9123, 0.0274,-0.2645,-0.9150,-0.0233,-2.1281, 1.4382,-1.9526
09-Sep-2020 10:30:52.683,-0.0778,-0.8909, 0.0672,-0.2271,-0.9020, 0.0073,-2.1209, 1.4397,-1.9691
09-Sep-2020 10:30:52.693,-0.0836,-0.8629, 0.1143,-0.2142,-0.8821, 0.0456,-2.1148, 1.4407,-1.9844
09-Sep-2020 10:30:52.703,-0.0943,-0.8420, 0.1518,-0.2359,-0.8809, 0.0809,-2.1076, 1.4414,-2.0004
09-Sep-2020 10:30:52.713,-0.1091,-0.8373, 0.1702,-0.2684,-0.8649, 0.1208,-2.0975, 1.4418,-2.0194
09-Sep-2020 10:30:52.723,-0.1223,-0.8272, 0.1734,-0.2983,-0.8436, 0.1608,-2.0834, 1.4420,-2.0423
09-Sep-2020 10:30:52.733,-0.1398,-0.8086, 0.1655,-0.3202,-0.8498, 0.1972,-2.0658, 1.4419,-2.0686
09-Sep-2020 10:30:52.743,-0.1650,-0.8054, 0.1567,-0.3270,-0.8582, 0.2009,-2.0456, 1.4416,-2.0975
09-Sep-2020 10:30:52.753,-0.1834,-0.8256, 0.1564,-0.3197,-0.8545, 0.1736,-2.0250, 1.4412,-2.1268
09-Sep-2020 10:30:52.763,-0.1947,-0.8601, 0.1635,-0.3122,-0.8198, 0.1401,-2.0056, 1.4409,-2.1549
09-Sep-2020 10:30:52.773,-0.2010,-0.8915, 0.1683,-0.3059,-0.7702, 0.1150,-1.9877, 1.4408,-2.1813
09-Sep-2020 10:30:52.783,-0.2062,-0.9210, 0.1484,-0.2769,-0.7177, 0.0962,-1.9705, 1.4409,-2.2063
09-Sep-2020 10:30:52.793,-0.2035,-0.9382, 0.1189,-0.2205,-0.6607, 0.0775,-1.9555, 1.4410,-2.2287
09-Sep-2020 10:30:52.803,-0.1934,-0.9514, 0.0941,-0.1525,-0.6446, 0.0401,-1.9443, 1.4410,-2.2466
09-Sep-2020 10:30:52.813,-0.1795,-0.9780, 0.0845,-0.0875,-0.6734,-0.0104,-1.9389, 1.4411,-2.2586
09-Sep-2020 10:30:52.823,-0.1699,-1.0133, 0.0887,-0.0241,-0.6931,-0.0535,-1.9397, 1.4414,-2.2645
09-Sep-2020 10:30:52.833,-0.1626,-1.0428, 0.0968, 0.0449,-0.6829,-0.0709,-1.9463, 1.4419,-2.2648
09-Sep-2020 10:30:52.843,-0.1492,-1.0568, 0.1106, 0.1116,-0.6611,-0.0473,-1.9582, 1.4423,-2.2597
09-Sep-2020 10:30:52.852,-0.1307,-1.0640, 0.1292, 0.1512,-0.6385,-0.0008,-1.9740, 1.4422,-2.2504
09-Sep-2020 10:30:52.863,-0.1163,-1.0718, 0.1367, 0.1559,-0.6145, 0.0539,-1.9908, 1.4415,-2.2398
09-Sep-2020 10:30:52.872,-0.1027,-1.0739, 0.1301, 0.1421,-0.6010, 0.1138,-2.0059, 1.4403,-2.2308
09-Sep-2020 10:30:52.882,-0.0860,-1.0614, 0.1160, 0.1224,-0.6249, 0.1813,-2.0178, 1.4385,-2.2249
09-Sep-2020 10:30:52.893,-0.0830,-1.0373, 0.1036, 0.1026,-0.7059, 0.2399,-2.0264, 1.4363,-2.2225
09-Sep-2020 10:30:52.902,-0.0969,-1.0105, 0.1044, 0.0849,-0.8115, 0.2588,-2.0325, 1.4337,-2.2234
09-Sep-2020 10:30:52.913,-0.1176,-0.9874, 0.1297, 0.0592,-0.9070, 0.2354,-2.0377, 1.4310,-2.2263
09-Sep-2020 10:30:52.922,-0.1360,-0.9803, 0.1559, 0.0452,-0.9680, 0.1768,-2.0429, 1.4285,-2.2302
09-Sep-2020 10:30:52.932,-0.1508,-0.9845, 0.1623, 0.0659,-0.9724, 0.0972,-2.0498, 1.4267,-2.2329
09-Sep-2020 10:30:52.942,-0.1496,-1.0032, 0.1557, 0.1320,-0.9130,-0.0033,-2.0606, 1.4254,-2.2317
09-Sep-2020 10:30:52.952,-0.1382,-1.0305, 0.1441, 0.2394,-0.8262,-0.0944,-2.0777, 1.4247,-2.2236
09-Sep-2020 10:30:52.962,-0.1293,-1.0599, 0.1444, 0.3534,-0.7304,-0.1687,-2.1030, 1.4242,-2.2064
09-Sep-2020 10:30:52.972,-0.1175,-1.0997, 0.1498, 0.4289,-0.6495,-0.2099,-2.1360, 1.4237,-2.1880
09-Sep-2020 10:30:52.982,-0.1059,-1.1342, 0.1498, 0.4538,-0.5985,-0.2180,-2.1737, 1.4230,-2.1641
09-Sep-2020 10:30:52.992,-0.1093,-1.1558, 0.1473, 0.4315,-0.6111,-0.1944,-2.2122, 1.4220,-2.1387
09-Sep-2020 10:30:53.002,-0.1321,-1.1675, 0.1528, 0.3541,-0.6826,-0.1548,-2.2481, 1.4208,-2.1160
09-Sep-2020 10:30:53.012,-0.1654,-1.1787, 0.1675, 0.2256,-0.7837,-0.1358,-2.2789, 1.4196,-2.0993
09-Sep-2020 10:30:53.021,-0.2042,-1.1958, 0.1868, 0.0707,-0.8582,-0.1658,-2.3033, 1.4191,-2.0899
09-Sep-2020 10:30:53.032,-0.2439,-1.2230, 0.1942,-0.0645,-0.8605,-0.2315,-2.3224, 1.4197,-2.0866
09-Sep-2020 10:30:53.041,-0.2701,-1.2591, 0.1877,-0.1528,-0.7401,-0.3105,-2.3380, 1.4217,-2.0867
09-Sep-2020 10:30:53.051,-0.2640,-1.2986, 0.1542,-0.1654,-0.5196,-0.3629,-2.3525, 1.4248,-2.0868
09-Sep-2020 10:30:53.061,-0.2144,-1.3146, 0.0866,-0.1199,-0.2691,-0.3566,-2.3669, 1.4284,-2.0848
09-Sep-2020 10:30:53.071,-0.1458,-1.2896,-0.0056,-0.0288,-0.0731,-0.2888,-2.3813, 1.4315,-2.0803
09-Sep-2020 10:30:53.081,-0.0843,-1.2295,-0.0914, 0.0729,-0.0192,-0.1687,-2.3950, 1.4335,-2.0746
09-Sep-2020 10:30:53.091,-0.0360,-1.1475,-0.1498, 0.1642,-0.1281,-0.0028,-2.4071, 1.4340,-2.0698
09-Sep-2020 10:30:53.101,-0.0149,-1.0498,-0.1417, 0.1955,-0.3642, 0.1817,-2.4160, 1.4327,-2.0622
09-Sep-2020 10:30:53.111,-0.0341,-0.9514,-0.0636, 0.1135,-0.6702, 0.3485,-2.4187, 1.4301,-2.0632
09-Sep-2020 10:30:53.121,-0.1061,-0.8727, 0.0486,-0.0600,-0.9422, 0.4806,-2.4119, 1.4268,-2.0768
09-Sep-2020 10:30:53.131,-0.2099,-0.8189, 0.1519,-0.2740,-1.0885, 0.5719,-2.3940, 1.4240,-2.1043
09-Sep-2020 10:30:53.141,-0.3021,-0.7788, 0.2206,-0.4692,-1.0797, 0.5992,-2.3646, 1.4220,-2.1449
09-Sep-2020 10:30:53.151,-0.3665,-0.7520, 0.2536,-0.6229,-0.9135, 0.5593,-2.3254, 1.4209,-2.1952
09-Sep-2020 10:30:53.161,-0.3969,-0.7354, 0.2349,-0.7167,-0.6550, 0.4580,-2.2793, 1.4208,-2.2511
09-Sep-2020 10:30:53.171,-0.3925,-0.7257, 0.1641,-0.7077,-0.3952, 0.3150,-2.2303, 1.4217,-2.3072
09-Sep-2020 10:30:53.181,-0.3566,-0.7332, 0.0729,-0.5988,-0.1624, 0.1474,-2.1841, 1.4232,-2.3579
09-Sep-2020 10:30:53.191,-0.3063,-0.7462,-0.0061,-0.4310, 0.0383,-0.0081,-2.1467, 1.4252,-2.3974
09-Sep-2020 10:30:53.201,-0.2631,-0.7648,-0.0692,-0.2478, 0.1822,-0.1520,-2.1215, 1.4274,-2.4225
09-Sep-2020 10:30:53.211,-0.2192,-0.7908,-0.1123,-0.0882, 0.2446,-0.2739,-2.1103, 1.4299,-2.4320
09-Sep-2020 10:30:53.221,-0.1604,-0.8050,-0.1391, 0.0111, 0.2057,-0.3578,-2.1123, 1.4327,-2.4277
09-Sep-2020 10:30:53.231,-0.1024,-0.8089,-0.1555, 0.0715, 0.0479,-0.3866,-2.1241, 1.4355,-2.4137
09-Sep-2020 10:30:53.241,-0.0543,-0.8097,-0.1548, 0.1273,-0.1811,-0.3652,-2.1430, 1.4383,-2.3943
09-Sep-2020 10:30:53.251,-0.0266,-0.8033,-0.1111, 0.1539,-0.4307,-0.3000,-2.1676, 1.4405,-2.3713
09-Sep-2020 10:30:53.260,-0.0249,-0.7948,-0.0262, 0.1408,-0.6568,-0.2167,-2.1943, 1.4420,-2.3486
09-Sep-2020 10:30:53.271,-0.0536,-0.7889, 0.0770, 0.0648,-0.8262,-0.1314,-2.2191, 1.4429,-2.3302
09-Sep-2020 10:30:53.280,-0.0965,-0.7870, 0.1733,-0.0576,-0.8893,-0.0547,-2.2370, 1.4434,-2.3205
09-Sep-2020 10:30:53.290,-0.1435,-0.7919, 0.2416,-0.2035,-0.8557, 0.0001,-2.2447, 1.4441,-2.3215
09-Sep-2020 10:30:53.300,-0.1863,-0.7951, 0.2775,-0.3438,-0.7367, 0.0370,-2.2406, 1.4453,-2.3342
09-Sep-2020 10:30:53.311,-0.2254,-0.8032, 0.2704,-0.4539,-0.5886, 0.0605,-2.2245, 1.4471,-2.3578
09-Sep-2020 10:30:53.320,-0.2503,-0.8170, 0.2230,-0.5117,-0.4508, 0.0661,-2.1981, 1.4491,-2.3904
09-Sep-2020 10:30:53.330,-0.2549,-0.8310, 0.1656,-0.5315,-0.3539, 0.0532,-2.1651, 1.4515,-2.4281
09-Sep-2020 10:30:53.340,-0.2593,-0.8544, 0.0996,-0.5112,-0.3216,-0.0005,-2.1291, 1.4538,-2.4680
09-Sep-2020 10:30:53.350,-0.2610,-0.8898, 0.0513,-0.4617,-0.3430,-0.0832,-2.0951, 1.4564,-2.5055
09-Sep-2020 10:30:53.360,-0.2582,-0.9386, 0.0280,-0.3990,-0.3651,-0.1837,-2.0666, 1.4592,-2.5376
09-Sep-2020 10:30:53.370,-0.2570,-0.9909, 0.0088,-0.3055,-0.3562,-0.2814,-2.0462, 1.4626,-2.5617
09-Sep-2020 10:30:53.380,-0.2416,-1.0470,-0.0057,-0.1773,-0.3116,-0.3585,-2.0364, 1.4664,-2.5751
09-Sep-2020 10:30:53.390,-0.2096,-1.1073,-0.0154,-0.0172,-0.2604,-0.3846,-2.0399, 1.4703,-2.5748
09-Sep-2020 10:30:53.400,-0.1675,-1.1529,-0.0099, 0.1428,-0.2136,-0.3444,-2.0583, 1.4736,-2.5588
09-Sep-2020 10:30:53.410,-0.1330,-1.1776, 0.0162, 0.2438,-0.1809,-0.2365,-2.0899, 1.4758,-2.5293
09-Sep-2020 10:30:53.420,-0.1136,-1.1821, 0.0513, 0.2679,-0.2060,-0.0760,-2.1257, 1.4765,-2.4952
09-Sep-2020 10:30:53.430,-0.1203,-1.1651, 0.0910, 0.2154,-0.2868, 0.1049,-2.1551, 1.4756,-2.4678
09-Sep-2020 10:30:53.440,-0.1524,-1.1386, 0.1329, 0.0913,-0.3865, 0.2604,-2.1696, 1.4735,-2.4561
09-Sep-2020 10:30:53.450,-0.2010,-1.1154, 0.1585,-0.0445,-0.4630, 0.3589,-2.1663, 1.4708,-2.4632
09-Sep-2020 10:30:53.459,-0.2440,-1.1003, 0.1596,-0.1308,-0.4879, 0.3926,-2.1483, 1.4680,-2.4860
09-Sep-2020 10:30:53.470,-0.2649,-1.0909, 0.1541,-0.1618,-0.4418, 0.3844,-2.1229, 1.4653,-2.5164
09-Sep-2020 10:30:53.480,-0.2638,-1.0969, 0.1444,-0.1467,-0.3702, 0.3540,-2.0960, 1.4627,-2.5478
09-Sep-2020 10:30:53.489,-0.2552,-1.1160, 0.1301,-0.0849,-0.2708, 0.3082,-2.0726, 1.4603,-2.5751
09-Sep-2020 10:30:53.500,-0.2428,-1.1358, 0.1158,-0.0088,-0.1491, 0.2555,-2.0558, 1.4579,-2.5947
09-Sep-2020 10:30:53.509,-0.2197,-1.1500, 0.0997, 0.0680,-0.0247, 0.2135,-2.0463, 1.4556,-2.6057
09-Sep-2020 10:30:53.519,-0.1959,-1.1637, 0.0745, 0.1476, 0.0464, 0.1801,-2.0433, 1.4532,-2.6091
09-Sep-2020 10:30:53.529,-0.1843,-1.1738, 0.0518, 0.2196, 0.0669, 0.1451,-2.0470, 1.4509,-2.6049
09-Sep-2020 10:30:53.539,-0.1752,-1.1802, 0.0474, 0.2722, 0.0861, 0.1021,-2.0567, 1.4485,-2.5944
09-Sep-2020 10:30:53.549,-0.1605,-1.1943, 0.0460, 0.2936, 0.0911, 0.0433,-2.0711, 1.4463,-2.5791
09-Sep-2020 10:30:53.559,-0.1374,-1.2118, 0.0386, 0.3046, 0.0951, 0.0015,-2.0884, 1.4443,-2.5608
09-Sep-2020 10:30:53.569,-0.1187,-1.2251, 0.0284, 0.3205, 0.0724, 0.0137,-2.1077, 1.4427,-2.5404
09-Sep-2020 10:30:53.579,-0.1142,-1.2277, 0.0398, 0.3369, 0.0389, 0.0786,-2.1273, 1.4408,-2.5199
09-Sep-2020 10:30:53.589,-0.1291,-1.2274, 0.0719, 0.3078, 0.0298, 0.1614,-2.1449, 1.4383,-2.5018
09-Sep-2020 10:30:53.599,-0.1466,-1.2170, 0.0920, 0.2321, 0.0673, 0.2268,-2.1565, 1.4351,-2.4898
09-Sep-2020 10:30:53.609,-0.1540,-1.1871, 0.0894, 0.1305, 0.1352, 0.2679,-2.1605, 1.4319,-2.4850
09-Sep-2020 10:30:53.619,-0.1503,-1.1514, 0.0493, 0.0211, 0.2148, 0.2948,-2.1563, 1.4289,-2.4879
09-Sep-2020 10:30:53.629,-0.1341,-1.1215,-0.0227,-0.0645, 0.2612, 0.2999,-2.1443, 1.4263,-2.4979
09-Sep-2020 10:30:53.639,-0.1108,-1.0860,-0.0982,-0.1041, 0.2489, 0.2903,-2.1270, 1.4239,-2.5128
09-Sep-2020 10:30:53.649,-0.0978,-1.0461,-0.1588,-0.1010, 0.1892, 0.2637,-2.1087, 1.4219,-2.5289
09-Sep-2020 10:30:53.658,-0.0867,-1.0130,-0.1912,-0.0693, 0.1007, 0.2177,-2.0924, 1.4201,-2.5435
09-Sep-2020 10:30:53.668,-0.0676,-0.9831,-0.2005,-0.0241,-0.0175, 0.1637,-2.0805, 1.4184,-2.5545
09-Sep-2020 10:30:53.678,-0.0532,-0.9533,-0.1835, 0.0362,-0.1392, 0.1084,-2.0740, 1.4170,-2.5613
09-Sep-2020 10:30:53.689,-0.0457,-0.9187,-0.1352, 0.0747,-0.2445, 0.0745,-2.0738, 1.4158,-2.5629
09-Sep-2020 10:30:53.698,-0.0536,-0.8849,-0.0668, 0.0811,-0.3328, 0.0559,-2.0778, 1.4147,-2.5612
09-Sep-2020 10:30:53.708,-0.0707,-0.8531, 0.0072, 0.0582,-0.3801, 0.0522,-2.0838, 1.4137,-2.5585
09-Sep-2020 10:30:53.718,-0.0872,-0.8130, 0.0649, 0.0296,-0.3750, 0.0727,-2.0888, 1.4128,-2.5573
09-Sep-2020 10:30:53.728,-0.1008,-0.7625, 0.1037, 0.0003,-0.3407, 0.1012,-2.0918, 1.4120,-2.5580
09-Sep-2020 10:30:53.738,-0.1127,-0.7108, 0.1288,-0.0187,-0.3110, 0.1247,-2.0921, 1.4110,-2.5612
09-Sep-2020 10:30:53.748,-0.1285,-0.6709, 0.1446,-0.0331,-0.2859, 0.1311,-2.0904, 1.4100,-2.5660
09-Sep-2020 10:30:53.758,-0.1465,-0.6433, 0.1565,-0.0480,-0.2699, 0.1237,-2.0872, 1.4089,-2.5721
09-Sep-2020 10:30:53.768,-0.1656,-0.6245, 0.1648,-0.0633,-0.2704, 0.1023,-2.0836, 1.4080,-2.5785
09-Sep-2020 10:30:53.778,-0.1870,-0.6228, 0.1725,-0.0700,-0.2785, 0.0785,-2.0800, 1.4073,-2.5849
09-Sep-2020 10:30:53.788,-0.2137,-0.6336, 0.1787,-0.0846,-0.2674, 0.0442,-2.0768, 1.4069,-2.5910
09-Sep-2020 10:30:53.798,-0.2370,-0.6593, 0.1759,-0.0896,-0.2287,-0.0036,-2.0735, 1.4068,-2.5969
09-Sep-2020 10:30:53.808,-0.2477,-0.7015, 0.1625,-0.1010,-0.1838,-0.0555,-2.0712, 1.4072,-2.6016
09-Sep-2020 10:30:53.818,-0.2456,-0.7543, 0.1376,-0.1096,-0.1566,-0.0886,-2.0692, 1.4081,-2.6055
09-Sep-2020 10:30:53.828,-0.2341,-0.8066, 0.1118,-0.1143,-0.1369,-0.0972,-2.0674, 1.4093,-2.6089
09-Sep-2020 10:30:53.838,-0.2244,-0.8571, 0.0898,-0.1275,-0.1417,-0.0856,-2.0652, 1.4106,-2.6125
09-Sep-2020 10:30:53.848,-0.2130,-0.9052, 0.0711,-0.1610,-0.1811,-0.0760,-2.0622, 1.4119,-2.6170
09-Sep-2020 10:30:53.858,-0.2085,-0.9587, 0.0498,-0.2067,-0.2445,-0.0819,-2.0574, 1.4132,-2.6238
09-Sep-2020 10:30:53.868,-0.1974,-1.0061, 0.0200,-0.2305,-0.3126,-0.0855,-2.0507, 1.4148,-2.6330
09-Sep-2020 10:30:53.877,-0.1786,-1.0435,-0.0155,-0.2020,-0.3735,-0.0691,-2.0432, 1.4165,-2.6438
09-Sep-2020 10:30:53.888,-0.1589,-1.0657,-0.0451,-0.1213,-0.4368,-0.0385,-2.0375, 1.4179,-2.6533
09-Sep-2020 10:30:53.897,-0.1344,-1.0794,-0.0602,-0.0170,-0.5007, 0.0064,-2.0359, 1.4187,-2.6593
09-Sep-2020 10:30:53.907,-0.1145,-1.0793,-0.0630, 0.0836,-0.5961, 0.0690,-2.0397, 1.4186,-2.6606
09-Sep-2020 10:30:53.918,-0.1176,-1.0611,-0.0441, 0.1466,-0.7432, 0.1209,-2.0481, 1.4175,-2.6581
09-Sep-2020 10:30:53.927,-0.1448,-1.0409, 0.0008, 0.1525,-0.9150, 0.1448,-2.0600, 1.4157,-2.6535
09-Sep-2020 10:30:53.937,-0.1832,-1.0291, 0.0575, 0.1126,-1.0683, 0.1334,-2.0731, 1.4137,-2.6495
09-Sep-2020 10:30:53.947,-0.2238,-1.0289, 0.1073, 0.0627,-1.1624, 0.1064,-2.0858, 1.4119,-2.6474
09-Sep-2020 10:30:53.957,-0.2613,-1.0389, 0.1425, 0.0334,-1.1638, 0.0588,-2.0973, 1.4106,-2.6474
09-Sep-2020 10:30:53.967,-0.2899,-1.0644, 0.1534, 0.0236,-1.0725,-0.0200,-2.1089, 1.4099,-2.6473
09-Sep-2020 10:30:53.977,-0.2966,-1.0882, 0.1319, 0.0294,-0.9379,-0.0870,-2.1214, 1.4098,-2.6454
09-Sep-2020 10:30:53.987,-0.2825,-1.0931, 0.0764, 0.0550,-0.8334,-0.1322,-2.1351, 1.4103,-2.6410
09-Sep-2020 10:30:53.997,-0.2617,-1.0984, 0.0087, 0.0825,-0.8266,-0.1861,-2.1505, 1.4110,-2.6340
09-Sep-2020 10:30:54.007,-0.2424,-1.1090,-0.0476, 0.0966,-0.9180,-0.2532,-2.1693, 1.4120,-2.6233
09-Sep-2020 10:30:54.017,-0.2318,-1.1288,-0.0637, 0.1018,-1.0791,-0.3175,-2.1924, 1.4134,-2.6092
09-Sep-2020 10:30:54.027,-0.2373,-1.1567,-0.0354, 0.0831,-1.2022,-0.3825,-2.2200, 1.4153,-2.5921
09-Sep-2020 10:30:54.037,-0.2446,-1.1876, 0.0021, 0.0568,-1.2357,-0.4425,-2.2506, 1.4177,-2.5732
09-Sep-2020 10:30:54.047,-0.2439,-1.2077, 0.0206, 0.0533,-1.1818,-0.4757,-2.2841, 1.4206,-2.5517
09-Sep-2020 10:30:54.057,-0.2292,-1.2117, 0.0189, 0.0701,-1.0792,-0.4502,-2.3194, 1.4236,-2.5279
09-Sep-2020 10:30:54.067,-0.2166,-1.1910, 0.0053, 0.0892,-1.0137,-0.3833,-2.3545, 1.4263,-2.5033
09-Sep-2020 10:30:54.076,-0.2151,-1.1482, 0.0032, 0.0810,-1.0080,-0.2806,-2.3869, 1.4282,-2.4808
09-Sep-2020 10:30:54.086,-0.2381,-1.1024, 0.0302, 0.0079,-1.0508,-0.1740,-2.4147, 1.4295,-2.4629
09-Sep-2020 10:30:54.096,-0.2754,-1.0600, 0.0748,-0.1381,-1.1096,-0.0868,-2.4344, 1.4305,-2.4536
09-Sep-2020 10:30:54.107,-0.3154,-1.0246, 0.1128,-0.3282,-1.1414,-0.0292,-2.4435, 1.4321,-2.4555
09-Sep-2020 10:30:54.116,-0.3481,-1.0000, 0.1209,-0.5022,-1.1166,-0.0213,-2.4406, 1.4347,-2.4699
09-Sep-2020 10:30:54.126,-0.3599,-0.9938, 0.0915,-0.5900,-0.9970,-0.0490,-2.4290, 1.4385,-2.4927
09-Sep-2020 10:30:54.136,-0.3426,-0.9959, 0.0347,-0.5781,-0.8319,-0.0894,-2.4122, 1.4431,-2.5196
09-Sep-2020 10:30:54.147,-0.3033,-0.9942,-0.0308,-0.4970,-0.6731,-0.1278,-2.3951, 1.4478,-2.5453
09-Sep-2020 10:30:54.156,-0.2451,-0.9973,-0.0892,-0.3787,-0.5616,-0.1487,-2.3808, 1.4522,-2.5665
09-Sep-2020 10:30:54.166,-0.1820,-0.9922,-0.1323,-0.2631,-0.5224,-0.1249,-2.3729, 1.4558,-2.5801
09-Sep-2020 10:30:54.176,-0.1375,-0.9623,-0.1467,-0.1800,-0.5621,-0.0582,-2.3695, 1.4585,-2.5888
09-Sep-2020 10:30:54.186,-0.1169,-0.9243,-0.1414,-0.1445,-0.6514, 0.0160,-2.3673, 1.4601,-2.5967
09-Sep-2020 10:30:54.196,-0.1080,-0.8840,-0.1281,-0.1448,-0.7986, 0.0731,-2.3625, 1.4609,-2.6081
09-Sep-2020 10:30:54.206,-0.0984,-0.8404,-0.0919,-0.1871,-0.9704, 0.1330,-2.3560, 1.4614,-2.6226
09-Sep-2020 10:30:54.216,-0.0994,-0.7987,-0.0432,-0.2504,-1.1354, 0.1968,-2.3446, 1.4617,-2.6438
09-Sep-2020 10:30:54.226,-0.1171,-0.7661, 0.0057,-0.3119,-1.2644, 0.2481,-2.3268, 1.4619,-2.6731
09-Sep-2020 10:30:54.236,-0.1500,-0.7339, 0.0554,-0.3565,-1.3231, 0.2804,-2.3021, 1.4621,-2.7105
09-Sep-2020 10:30:54.246,-0.1893,-0.7063, 0.0908,-0.3725,-1.3061, 0.2609,-2.2741, 1.4622,-2.7519
09-Sep-2020 10:30:54.256,-0.2193,-0.6948, 0.1134,-0.3507,-1.2247, 0.2062,-2.2457, 1.4625,-2.7935
09-Sep-2020 10:30:54.266,-0.2405,-0.6858, 0.1258,-0.2887,-1.0988, 0.1119,-2.2211, 1.4630,-2.8305
09-Sep-2020 10:30:54.275,-0.2546,-0.6911, 0.1201,-0.1901,-0.9370, 0.0085,-2.2038, 1.4637,-2.8589
09-Sep-2020 10:30:54.286,-0.2590,-0.7049, 0.1032,-0.0652,-0.7902,-0.0935,-2.1985, 1.4646,-2.8736
09-Sep-2020 10:30:54.295,-0.2518,-0.7207, 0.0939, 0.0449,-0.6930,-0.1853,-2.2065, 1.4657,-2.8736
09-Sep-2020 10:30:54.305,-0.2432,-0.7430, 0.0947, 0.1129,-0.6406,-0.2669,-2.2270, 1.4668,-2.8599
09-Sep-2020 10:30:54.315,-0.2389,-0.7776, 0.1040, 0.1368,-0.6188,-0.3362,-2.2565, 1.4681,-2.8367
09-Sep-2020 10:30:54.326,-0.2338,-0.8251, 0.1181, 0.1318,-0.6171,-0.3750,-2.2936, 1.4697,-2.8056
09-Sep-2020 10:30:54.335,-0.2314,-0.8747, 0.1389, 0.1072,-0.6055,-0.3747,-2.3340, 1.4714,-2.7712
09-Sep-2020 10:30:54.345,-0.2373,-0.9297, 0.1659, 0.0529,-0.5768,-0.3507,-2.3738, 1.4733,-2.7372
09-Sep-2020 10:30:54.355,-0.2465,-0.9875, 0.1928,-0.0289,-0.5086,-0.3250,-2.4084, 1.4752,-2.7082
09-Sep-2020 10:30:54.365,-0.2506,-1.0399, 0.2007,-0.1248,-0.4266,-0.3007,-2.4368, 1.4774,-2.6847
09-Sep-2020 10:30:54.375,-0.2393,-1.0857, 0.1822,-0.2143,-0.3295,-0.2797,-2.4570, 1.4802,-2.6687
09-Sep-2020 10:30:54.385,-0.2153,-1.1258, 0.1341,-0.2710,-0.2456,-0.2445,-2.4693, 1.4836,-2.6597
09-Sep-2020 10:30:54.395,-0.1848,-1.1533, 0.0692,-0.2536,-0.1987,-0.1969,-2.4734, 1.4870,-2.6580
09-Sep-2020 10:30:54.405,-0.1553,-1.1637, 0.0147,-0.1872,-0.2337,-0.1192,-2.4749, 1.4901,-2.6586
09-Sep-2020 10:30:54.415,-0.1493,-1.1549,-0.0004,-0.1026,-0.3286,-0.0277,-2.4742, 1.4922,-2.6617
09-Sep-2020 10:30:54.425,-0.1761,-1.1416, 0.0278,-0.0490,-0.4335, 0.0368,-2.4718, 1.4931,-2.6674
09-Sep-2020 10:30:54.435,-0.2161,-1.1298, 0.0864,-0.0462,-0.5035, 0.0661,-2.4666, 1.4932,-2.6769
09-Sep-2020 10:30:54.445,-0.2438,-1.1254, 0.1381,-0.0723,-0.5229, 0.0730,-2.4609, 1.4931,-2.6877
09-Sep-2020 10:30:54.455,-0.2495,-1.1415, 0.1673,-0.0960,-0.4923, 0.0837,-2.4526, 1.4931,-2.7011
09-Sep-2020 10:30:54.465,-0.2456,-1.1537, 0.1840,-0.1234,-0.4310, 0.1147,-2.4408, 1.4932,-2.7179
09-Sep-2020 10:30:54.475,-0.2437,-1.1654, 0.1882,-0.1396,-0.3473, 0.1368,-2.4219, 1.4933,-2.7412
09-Sep-2020 10:30:54.485,-0.2354,-1.1785, 0.1609,-0.1219,-0.2573, 0.1150,-2.4004, 1.4933,-2.7662
09-Sep-2020 10:30:54.495,-0.2001,-1.1800, 0.1175,-0.0532,-0.1432, 0.0713,-2.3814, 1.4934,-2.7878
09-Sep-2020 10:30:54.506,-0.1517,-1.1728, 0.0726, 0.0700,-0.0634, 0.0392,-2.3715, 1.4932,-2.7992
09-Sep-2020 10:30:54.515,-0.1145,-1.1657, 0.0544, 0.2130,-0.0366, 0.0179,-2.3732, 1.4922,-2.7982
09-Sep-2020 10:30:54.524,-0.0910,-1.1600, 0.0638, 0.3311,-0.0406, 0.0120,-2.3897, 1.4905,-2.7821
09-Sep-2020 10:30:54.534,-0.0704,-1.1568, 0.0925, 0.4051,-0.0468, 0.0146,-2.4155, 1.4879,-2.7565
09-Sep-2020 10:30:54.544,-0.0543,-1.1612, 0.1374, 0.4181,-0.0414, 0.0558,-2.4449, 1.4847,-2.7275
09-Sep-2020 10:30:54.554,-0.0600,-1.1609, 0.1957, 0.3568,-0.0161, 0.1438,-2.4680, 1.4810,-2.7047
09-Sep-2020 10:30:54.565,-0.1008,-1.1638, 0.2489, 0.2126, 0.0346, 0.2435,-2.4791, 1.4773,-2.6937
09-Sep-2020 10:30:54.574,-0.1448,-1.1730, 0.2770, 0.0135, 0.1154, 0.3117,-2.4722, 1.4741,-2.7003
09-Sep-2020 10:30:54.584,-0.1498,-1.1748, 0.2638,-0.2115, 0.2443, 0.3456,-2.4470, 1.4720,-2.7245
09-Sep-2020 10:30:54.594,-0.1049,-1.1826, 0.1881,-0.3898, 0.4276, 0.3410,-2.4035, 1.4712,-2.7656
09-Sep-2020 10:30:54.604,-0.0290,-1.1947, 0.0574,-0.4515, 0.6277, 0.2955,-2.3483, 1.4715,-2.8169
09-Sep-2020 10:30:54.614, 0.0511,-1.1994,-0.0836,-0.3970, 0.8084, 0.2573,-2.2890, 1.4723,-2.8702
09-Sep-2020 10:30:54.624, 0.1357,-1.1936,-0.2044,-0.2693, 0.9326, 0.2458,-2.2336, 1.4727,-2.9178
09-Sep-2020 10:30:54.634, 0.2064,-1.1639,-0.2904,-0.1183, 0.9165, 0.2678,-2.1868, 1.4721,-2.9556
09-Sep-2020 10:30:54.644, 0.2590,-1.1077,-0.3210, 0.0006, 0.7529, 0.2897,-2.1528, 1.4705,-2.9807
09-Sep-2020 10:30:54.654, 0.2777,-1.0378,-0.2884, 0.0352, 0.4993, 0.2980,-2.1296, 1.4681,-2.9966
09-Sep-2020 10:30:54.664, 0.2617,-0.9703,-0.2168,-0.0201, 0.2219, 0.2740,-2.1122, 1.4653,-3.0091
09-Sep-2020 10:30:54.674, 0.2154,-0.9057,-0.1359,-0.1241,-0.0250, 0.2253,-2.0945, 1.4630,-3.0247
09-Sep-2020 10:30:54.684, 0.1476,-0.8552,-0.0530,-0.2227,-0.1559, 0.2006,-2.0747, 1.4615,-3.0448
09-Sep-2020 10:30:54.694, 0.0834,-0.8177, 0.0159,-0.2970,-0.1526, 0.2018,-2.0499, 1.4607,-3.0711
09-Sep-2020 10:30:54.704, 0.0329,-0.7842, 0.0580,-0.3467,-0.0676, 0.2029,-2.0197, 1.4601,-3.1031
09-Sep-2020 10:30:54.714,-0.0004,-0.7515, 0.0796,-0.3742, 0.0870, 0.2049,-1.9842, 1.4596,-3.1394
09-Sep-2020 10:30:54.723,-0.0122,-0.7222, 0.0842,-0.3728, 0.2480, 0.2045,-1.9458, 1.4591, 3.1060
09-Sep-2020 10:30:54.734,-0.0182,-0.6944, 0.0704,-0.3447, 0.3602, 0.2042,-1.9064, 1.4584, 3.0688
09-Sep-2020 10:30:54.744,-0.0260,-0.6681, 0.0591,-0.3133, 0.4047, 0.1957,-1.8685, 1.4574, 3.0342
09-Sep-2020 10:30:54.753,-0.0456,-0.6522, 0.0593,-0.2835, 0.4119, 0.1647,-1.8332, 1.4563, 3.0028
09-Sep-2020 10:30:54.764,-0.0778,-0.6502, 0.0663,-0.2565, 0.4204, 0.1161,-1.8020, 1.4553, 2.9755
09-Sep-2020 10:30:54.773,-0.1071,-0.6664, 0.0762,-0.2152, 0.4575, 0.0457,-1.7744, 1.4546, 2.9520
09-Sep-2020 10:30:54.783,-0.1145,-0.7029, 0.0726,-0.1628, 0.5339,-0.0135,-1.7512, 1.4545, 2.9332
09-Sep-2020 10:30:54.793,-0.1076,-0.7398, 0.0574,-0.0960, 0.6150,-0.0431,-1.7323, 1.4548, 2.9195
09-Sep-2020 10:30:54.803,-0.1024,-0.7747, 0.0398,-0.0200, 0.6817,-0.0689,-1.7190, 1.4553, 2.9123
09-Sep-2020 10:30:54.814,-0.0874,-0.8074, 0.0221, 0.0442, 0.7224,-0.1026,-1.7117, 1.4559, 2.9117
09-Sep-2020 10:30:54.823,-0.0670,-0.8450, 0.0059, 0.0814, 0.7206,-0.1506,-1.7097, 1.4568, 2.9168
09-Sep-2020 10:30:54.833,-0.0429,-0.8944,-0.0060, 0.1138, 0.7050,-0.2053,-1.7113, 1.4580, 2.9257
09-Sep-2020 10:30:54.843,-0.0133,-0.9465,-0.0156, 0.1452, 0.6876,-0.2389,-1.7171, 1.4598, 2.9386
09-Sep-2020 10:30:54.853, 0.0238,-0.9900,-0.0193, 0.1761, 0.6603,-0.2344,-1.7267, 1.4618, 2.9551
09-Sep-2020 10:30:54.863, 0.0569,-1.0200,-0.0148, 0.2084, 0.6186,-0.2029,-1.7398, 1.4638, 2.9749
09-Sep-2020 10:30:54.873, 0.0867,-1.0415,-0.0063, 0.2395, 0.5642,-0.1631,-1.7559, 1.4652, 2.9973
09-Sep-2020 10:30:54.883, 0.1117,-1.0609, 0.0103, 0.2833, 0.4958,-0.1155,-1.7757, 1.4663, 3.0229
09-Sep-2020 10:30:54.893, 0.1158,-1.0767, 0.0438, 0.3221, 0.4368,-0.0751,-1.7996, 1.4667, 3.0518
09-Sep-2020 10:30:54.903, 0.1110,-1.0857, 0.0816, 0.3365, 0.4229,-0.0438,-1.8268, 1.4666, 3.0835
09-Sep-2020 10:30:54.913, 0.1052,-1.0844, 0.1116, 0.3327, 0.4329,-0.0044,-1.8542, 1.4660, 3.1153
09-Sep-2020 10:30:54.922, 0.0965,-1.0791, 0.1271, 0.3233, 0.4419, 0.0340,-1.8800, 1.4650,-3.1376
09-Sep-2020 10:30:54.933, 0.0848,-1.0787, 0.1296, 0.3191, 0.4442, 0.0485,-1.9033, 1.4636,-3.1097
09-Sep-2020 10:30:54.942, 0.0637,-1.0873, 0.1295, 0.3286, 0.4509, 0.0469,-1.9252, 1.4620,-3.0833
09-Sep-2020 10:30:54.952, 0.0316,-1.0974, 0.1306, 0.3505, 0.4875, 0.0224,-1.9467, 1.4603,-3.0571
09-Sep-2020 10:30:54.963, 0.0119,-1.1092, 0.1336, 0.3748, 0.5644,-0.0234,-1.9700, 1.4587,-3.0288
09-Sep-2020 10:30:54.972, 0.0084,-1.1297, 0.1208, 0.4129, 0.6907,-0.0835,-1.9955, 1.4574,-2.9975
09-Sep-2020 10:30:54.983, 0.0195,-1.1594, 0.0869, 0.4591, 0.8298,-0.1245,-2.0242, 1.4563,-2.9617
09-Sep-2020 10:30:54.992, 0.0456,-1.1865, 0.0348, 0.5176, 0.9309,-0.1354,-2.0558, 1.4552,-2.9216
09-Sep-2020 10:30:55.002, 0.0769,-1.2012,-0.0186, 0.5727, 0.9599,-0.1127,-2.0906, 1.4538,-2.8773
09-Sep-2020 10:30:55.012, 0.1019,-1.2087,-0.0433, 0.6086, 0.9238,-0.0758,-2.1270, 1.4517,-2.8310
09-Sep-2020 10:30:55.022, 0.1040,-1.2092,-0.0430, 0.6186, 0.8528,-0.0131,-2.1629, 1.4490,-2.7856
09-Sep-2020 10:30:55.032, 0.0693,-1.2015,-0.0290, 0.6121, 0.7896, 0.0619,-2.1953, 1.4455,-2.7444
09-Sep-2020 10:30:55.042,-0.0030,-1.1879, 0.0111, 0.5808, 0.7552, 0.1549,-2.2225, 1.4413,-2.7091
09-Sep-2020 10:30:55.052,-0.1018,-1.1724, 0.0726, 0.5019, 0.7483, 0.2288,-2.2420, 1.4365,-2.6818
09-Sep-2020 10:30:55.062,-0.1980,-1.1569, 0.1213, 0.3794, 0.8102, 0.2499,-2.2523, 1.4315,-2.6638
09-Sep-2020 10:30:55.072,-0.2662,-1.1513, 0.1294, 0.2467, 1.0017, 0.2180,-2.2534, 1.4272,-2.6545
09-Sep-2020 10:30:55.082,-0.2739,-1.1500, 0.0844, 0.1558, 1.2862, 0.1395,-2.2472, 1.4239,-2.6506
09-Sep-2020 10:30:55.092,-0.2214,-1.1549,-0.0111, 0.1474, 1.5664, 0.0517,-2.2370, 1.4217,-2.6480
09-Sep-2020 10:30:55.102,-0.1543,-1.1568,-0.1089, 0.1991, 1.7475, 0.0078,-2.2270, 1.4203,-2.6424
09-Sep-2020 10:30:55.112,-0.1140,-1.1571,-0.1637, 0.2621, 1.8369, 0.0167,-2.2192, 1.4189,-2.6328
09-Sep-2020 10:30:55.122,-0.0986,-1.1427,-0.1879, 0.2903, 1.8566, 0.0559,-2.2136, 1.4171,-2.6200
09-Sep-2020 10:30:55.132,-0.0902,-1.1144,-0.1967, 0.2595, 1.8067, 0.0939,-2.2076, 1.4149,-2.6074
09-Sep-2020 10:30:55.141,-0.0812,-1.0757,-0.1973, 0.1739, 1.6853, 0.1054,-2.1992, 1.4125,-2.5977
09-Sep-2020 10:30:55.151,-0.0608,-1.0361,-0.1949, 0.0749, 1.5260, 0.0810,-2.1871, 1.4106,-2.5930
09-Sep-2020 10:30:55.162,-0.0287,-0.9935,-0.1802, 0.0037, 1.3719, 0.0402,-2.1729, 1.4095,-2.5921
09-Sep-2020 10:30:55.171, 0.0034,-0.9536,-0.1586,-0.0083, 1.2661,-0.0275,-2.1583, 1.4090,-2.5930
09-Sep-2020 10:30:55.181, 0.0400,-0.9167,-0.1362, 0.0455, 1.1817,-0.1179,-2.1464, 1.4092,-2.5923
09-Sep-2020 10:30:55.191, 0.0807,-0.8830,-0.0949, 0.1525, 1.1053,-0.2228,-2.1408, 1.4099,-2.5861
09-Sep-2020 10:30:55.201, 0.1033,-0.8531,-0.0315, 0.2796, 1.0457,-0.3335,-2.1451, 1.4108,-2.5705
09-Sep-2020 10:30:55.211, 0.1049,-0.8275, 0.0508, 0.3924, 1.0203,-0.4322,-2.1603, 1.4120,-2.5446
09-Sep-2020 10:30:55.221, 0.0763,-0.8078, 0.1466, 0.4675, 1.0490,-0.4915,-2.1853, 1.4133,-2.5090
09-Sep-2020 10:30:55.231, 0.0240,-0.7878, 0.2297, 0.5007, 1.1819,-0.5109,-2.2161, 1.4144,-2.4672
09-Sep-2020 10:30:55.241,-0.0298,-0.7706, 0.2787, 0.4943, 1.3545,-0.5124,-2.2488, 1.4153,-2.4222
09-Sep-2020 10:30:55.251,-0.0719,-0.7605, 0.2872, 0.4539, 1.5289,-0.5100,-2.2800, 1.4160,-2.3769
09-Sep-2020 10:30:55.261,-0.0823,-0.7575, 0.2731, 0.3973, 1.6570,-0.4920,-2.3079, 1.4167,-2.3333
09-Sep-2020 10:30:55.271,-0.0798,-0.7632, 0.2471, 0.3286, 1.7212,-0.4661,-2.3312, 1.4175,-2.2931
09-Sep-2020 10:30:55.281,-0.0888,-0.7777, 0.2195, 0.2498, 1.7322,-0.4358,-2.3502, 1.4185,-2.2566
09-Sep-2020 10:30:55.291,-0.1014,-0.7980, 0.2045, 0.1561, 1.7384,-0.3862,-2.3643, 1.4197,-2.2249
09-Sep-2020 10:30:55.301,-0.1143,-0.8220, 0.1845, 0.0679, 1.7415,-0.3198,-2.3721, 1.4212,-2.1995
09-Sep-2020 10:30:55.311,-0.1267,-0.8464, 0.1579,-0.0069, 1.7486,-0.2387,-2.3727, 1.4229,-2.1814
09-Sep-2020 10:30:55.320,-0.1393,-0.8662, 0.1259,-0.0516, 1.7611,-0.1706,-2.3665, 1.4245,-2.1701
09-Sep-2020 10:30:55.330,-0.1402,-0.8937, 0.0905,-0.0672, 1.7766,-0.1371,-2.3547, 1.4260,-2.1643
09-Sep-2020 10:30:55.340,-0.1302,-0.9228, 0.0607,-0.0365, 1.7765,-0.1058,-2.3403, 1.4273,-2.1610
09-Sep-2020 10:30:55.351,-0.1201,-0.9458, 0.0446, 0.0123, 1.7641,-0.0674,-2.3254, 1.4283,-2.1582
09-Sep-2020 10:30:55.360,-0.1152,-0.9674, 0.0396, 0.0658, 1.7462,-0.0268,-2.3114, 1.4286,-2.1546
09-Sep-2020 10:30:55.370,-0.1190,-0.9833, 0.0543, 0.1148, 1.7418, 0.0148,-2.2985, 1.4283,-2.1500
09-Sep-2020 10:30:55.380,-0.1230,-0.9855, 0.0708, 0.1340, 1.7516, 0.0433,-2.2862, 1.4274,-2.1450
09-Sep-2020 10:30:55.390,-0.1142,-0.9857, 0.0692, 0.1497, 1.7288, 0.0443,-2.2735, 1.4261,-2.1402
09-Sep-2020 10:30:55.400,-0.1006,-0.9884, 0.0629, 0.1761, 1.6736, 0.0394,-2.2622, 1.4247,-2.1343
09-Sep-2020 10:30:55.410,-0.0971,-0.9934, 0.0701, 0.2156, 1.6188, 0.0379,-2.2529, 1.4232,-2.1268
09-Sep-2020 10:30:55.420,-0.1071,-1.0064, 0.0855, 0.2665, 1.5844, 0.0417,-2.2463, 1.4215,-2.1173
09-Sep-2020 10:30:55.430,-0.1235,-1.0163, 0.1061, 0.3078, 1.5711, 0.0434,-2.2421, 1.4195,-2.1056
09-Sep-2020 10:30:55.440,-0.1438,-1.0250, 0.1308, 0.3348, 1.5680, 0.0409,-2.2402, 1.4172,-2.0916
09-Sep-2020 10:30:55.450,-0.1682,-1.0336, 0.1502, 0.3383, 1.5805, 0.0218,-2.2395, 1.4147,-2.0765
09-Sep-2020 10:30:55.460,-0.1914,-1.0497, 0.1591, 0.3231, 1.6206,-0.0131,-2.2394, 1.4124,-2.0607
09-Sep-2020 10:30:55.470,-0.1950,-1.0652, 0.1550, 0.3122, 1.6873,-0.0451,-2.2392, 1.4105,-2.0445
09-Sep-2020 10:30:55.480,-0.1887,-1.0840, 0.1294, 0.3205, 1.7592,-0.0631,-2.2391, 1.4088,-2.0276
09-Sep-2020 10:30:55.490,-0.1721,-1.1075, 0.0969, 0.3544, 1.7932,-0.0661,-2.2392, 1.4072,-2.0098
09-Sep-2020 10:30:55.500,-0.1638,-1.1367, 0.0800, 0.3788, 1.7780,-0.0567,-2.2403, 1.4055,-1.9907
09-Sep-2020 10:30:55.510,-0.1726,-1.1652, 0.0817, 0.3713, 1.7143,-0.0324,-2.2418, 1.4035,-1.9712
09-Sep-2020 10:30:55.520,-0.1853,-1.1927, 0.0971, 0.3234, 1.6406,-0.0193,-2.2429, 1.4014,-1.9529
09-Sep-2020 10:30:55.530,-0.1841,-1.2246, 0.1137, 0.2456, 1.6059,-0.0277,-2.2417, 1.3995,-1.9375
09-Sep-2020 10:30:55.540,-0.1430,-1.2551, 0.1061, 0.1870, 1.6134,-0.0571,-2.2376, 1.3981,-1.9253
09-Sep-2020 10:30:55.549,-0.0890,-1.2790, 0.0821, 0.1870, 1.6260,-0.0619,-2.2318, 1.3973,-1.9150
09-Sep-2020 10:30:55.560,-0.0429,-1.2984, 0.0688, 0.2181, 1.6272,-0.0163,-2.2260, 1.3965,-1.9044
09-Sep-2020 10:30:55.569,-0.0079,-1.2961, 0.0573, 0.2462, 1.6314, 0.0788,-2.2199, 1.3952,-1.8942
09-Sep-2020 10:30:55.580, 0.0282,-1.2596, 0.0540, 0.2243, 1.5900, 0.1867,-2.2117, 1.3930,-1.8861
09-Sep-2020 10:30:55.589, 0.0641,-1.2003, 0.0493, 0.1511, 1.4794, 0.2596,-2.1995, 1.3902,-1.8825
09-Sep-2020 10:30:55.599, 0.0975,-1.1357, 0.0509, 0.0446, 1.3072, 0.3018,-2.1831, 1.3872,-1.8841
09-Sep-2020 10:30:55.609, 0.1187,-1.0775, 0.0613,-0.0724, 1.1096, 0.3146,-2.1630, 1.3844,-1.8915
09-Sep-2020 10:30:55.619, 0.1209,-1.0235, 0.0890,-0.1733, 0.9409, 0.2933,-2.1397, 1.3821,-1.9038
09-Sep-2020 10:30:55.629, 0.1021,-0.9814, 0.1232,-0.2347, 0.8448, 0.2398,-2.1147, 1.3804,-1.9198
09-Sep-2020 10:30:55.639, 0.0691,-0.9600, 0.1590,-0.2582, 0.8711, 0.1689,-2.0896, 1.3795,-1.9367
09-Sep-2020 10:30:55.649, 0.0327,-0.9398, 0.1798,-0.2719, 0.9878, 0.1017,-2.0651, 1.3792,-1.9528
09-Sep-2020 10:30:55.659,-0.0004,-0.9166, 0.1647,-0.2670, 1.1215, 0.0550,-2.0405, 1.3794,-1.9678
09-Sep-2020 10:30:55.669,-0.0160,-0.8856, 0.1259,-0.2456, 1.2188, 0.0306,-2.0157, 1.3800,-1.9817
09-Sep-2020 10:30:55.679,-0.0161,-0.8507, 0.0808,-0.2172, 1.2532, 0.0149,-1.9914, 1.3807,-1.9941
09-Sep-2020 10:30:55.689,-0.0246,-0.8164, 0.0427,-0.1905, 1.2002, 0.0099,-1.9683, 1.3813,-2.0050
09-Sep-2020 10:30:55.699,-0.0392,-0.7902, 0.0203,-0.1674, 1.1105, 0.0170,-1.9470, 1.3818,-2.0146
09-Sep-2020 10:30:55.709,-0.0549,-0.7688, 0.0075,-0.1364, 1.0116, 0.0347,-1.9274, 1.3822,-2.0233
09-Sep-2020 10:30:55.719,-0.0738,-0.7466, 0.0089,-0.0982, 0.9122, 0.0592,-1.9101, 1.3823,-2.0307
09-Sep-2020 10:30:55.729,-0.0945,-0.7299, 0.0217,-0.0671, 0.8333, 0.0783,-1.8952, 1.3820,-2.0366
09-Sep-2020 10:30:55.739,-0.1134,-0.7214, 0.0440,-0.0434, 0.7639, 0.0830,-1.8823, 1.3814,-2.0413
09-Sep-2020 10:30:55.749,-0.1286,-0.7233, 0.0728,-0.0299, 0.7289, 0.0917,-1.8712, 1.3806,-2.0449
09-Sep-2020 10:30:55.759,-0.1440,-0.7355, 0.0929,-0.0154, 0.7414, 0.1175,-1.8611, 1.3798,-2.0477
09-Sep-2020 10:30:55.769,-0.1596,-0.7460, 0.1020,-0.0015, 0.7624, 0.1472,-1.8513, 1.3786,-2.0502
09-Sep-2020 10:30:55.779,-0.1784,-0.7564, 0.1040, 0.0111, 0.7811, 0.1522,-1.8418, 1.3772,-2.0522
09-Sep-2020 10:30:55.789,-0.1915,-0.7714, 0.1023, 0.0000, 0.7721, 0.1202,-1.8325, 1.3756,-2.0538
09-Sep-2020 10:30:55.798,-0.1963,-0.7993, 0.0998,-0.0229, 0.7232, 0.0811,-1.8234, 1.3744,-2.0553
09-Sep-2020 10:30:55.809,-0.1916,-0.8363, 0.1045,-0.0587, 0.6387, 0.0445,-1.8141, 1.3736,-2.0574
09-Sep-2020 10:30:55.818,-0.1880,-0.8760, 0.1147,-0.0889, 0.5430, 0.0091,-1.8045, 1.3732,-2.0608
09-Sep-2020 10:30:55.828,-0.1929,-0.9140, 0.1373,-0.1182, 0.4842,-0.0347,-1.7946, 1.3733,-2.0653
09-Sep-2020 10:30:55.838,-0.1950,-0.9638, 0.1555,-0.1496, 0.4573,-0.1122,-1.7845, 1.3738,-2.0707
09-Sep-2020 10:30:55.848,-0.1827,-1.0118, 0.1471,-0.1425, 0.4497,-0.2091,-1.7741, 1.3751,-2.0767
09-Sep-2020 10:30:55.858,-0.1484,-1.0595, 0.1298,-0.1054, 0.4530,-0.3201,-1.7648, 1.3774,-2.0816
09-Sep-2020 10:30:55.868,-0.0975,-1.1066, 0.1091,-0.0200, 0.4390,-0.4163,-1.7583, 1.3807,-2.0837
09-Sep-2020 10:30:55.878,-0.0460,-1.1379, 0.0998, 0.0922, 0.3834,-0.4604,-1.7571, 1.3846,-2.0805
09-Sep-2020 10:30:55.888,-0.0163,-1.1556, 0.1182, 0.2106, 0.3005,-0.4490,-1.7629, 1.3888,-2.0707
09-Sep-2020 10:30:55.898,-0.0164,-1.1591, 0.1579, 0.2983, 0.2221,-0.4177,-1.7760, 1.3927,-2.0543
09-Sep-2020 10:30:55.908,-0.0203,-1.1547, 0.2143, 0.3227, 0.1610,-0.3636,-1.7949, 1.3961,-2.0329
09-Sep-2020 10:30:55.918,-0.0273,-1.1418, 0.2608, 0.2877, 0.1041,-0.2731,-1.8158, 1.3988,-2.0101
09-Sep-2020 10:30:55.927,-0.0451,-1.1191, 0.2974, 0.2143, 0.0574,-0.1327,-1.8347, 1.4006,-1.9898
09-Sep-2020 10:30:55.937,-0.0820,-1.0908, 0.3235, 0.1052, 0.0221, 0.0296,-1.8481, 1.4012,-1.9757
09-Sep-2020 10:30:55.948,-0.1392,-1.0556, 0.3302,-0.0188,-0.0177, 0.1814,-1.8532, 1.4006,-1.9702
09-Sep-2020 10:30:55.957,-0.2113,-1.0229, 0.3120,-0.1338,-0.0611, 0.2766,-1.8496, 1.3988,-1.9741
09-Sep-2020 10:30:55.967,-0.2758,-1.0083, 0.2767,-0.2077,-0.0861, 0.3208,-1.8389, 1.3965,-1.9856
09-Sep-2020 10:30:55.977,-0.3157,-1.0081, 0.2375,-0.2364,-0.0994, 0.3239,-1.8241, 1.3939,-2.0015
09-Sep-2020 10:30:55.987,-0.3521,-1.0171, 0.1930,-0.2237,-0.0886, 0.2822,-1.8084, 1.3913,-2.0185
09-Sep-2020 10:30:55.997,-0.3660,-1.0409, 0.1432,-0.1841,-0.0389, 0.2046,-1.7940, 1.3890,-2.0339
09-Sep-2020 10:30:56.007,-0.3474,-1.0723, 0.0737,-0.1160,-0.0025, 0.1061,-1.7826, 1.3874,-2.0459
09-Sep-2020 10:30:56.017,-0.3119,-1.1109,-0.0022,-0.0190,-0.0490,-0.0024,-1.7756, 1.3865,-2.0531
09-Sep-2020 10:30:56.027,-0.2756,-1.1587,-0.0563, 0.0992,-0.1615,-0.1162,-1.7754, 1.3865,-2.0538
09-Sep-2020 10:30:56.038,-0.2382,-1.2096,-0.0742, 0.2165,-0.2838,-0.2318,-1.7837, 1.3873,-2.0471
09-Sep-2020 10:30:56.047,-0.1887,-1.2525,-0.0568, 0.3159,-0.3689,-0.3250,-1.8007, 1.3890,-2.0327
09-Sep-2020 10:30:56.057,-0.1305,-1.2758,-0.0378, 0.4037,-0.4089,-0.3699,-1.8253, 1.3913,-2.0113
09-Sep-2020 10:30:56.067,-0.0707,-1.2767,-0.0193, 0.4911,-0.4155,-0.3343,-1.8563, 1.3937,-1.9840
09-Sep-2020 10:30:56.077,-0.0291,-1.2462,-0.0010, 0.5634,-0.4176,-0.1796,-1.8920, 1.3952,-1.9519
09-Sep-2020 10:30:56.087,-0.0307,-1.1866, 0.0231, 0.5737,-0.4470, 0.0507,-1.9291, 1.3949,-1.9185
09-Sep-2020 10:30:56.097,-0.0659,-1.1012, 0.0683, 0.4719,-0.5430, 0.2840,-1.9619, 1.3923,-1.8897
09-Sep-2020 10:30:56.107,-0.1154,-1.0140, 0.1133, 0.2451,-0.6734, 0.4755,-1.9846, 1.3879,-1.8722
09-Sep-2020 10:30:56.117,-0.1677,-0.9397, 0.1373,-0.0492,-0.8163, 0.6072,-1.9928, 1.3825,-1.8707
09-Sep-2020 10:30:56.127,-0.2240,-0.8777, 0.1276,-0.3291,-0.9320, 0.6729,-1.9860, 1.3772,-1.8859
09-Sep-2020 10:30:56.137,-0.2694,-0.8354, 0.0967,-0.5257,-1.0082, 0.6843,-1.9671, 1.3722,-1.9146
09-Sep-2020 10:30:56.147,-0.3018,-0.8114, 0.0658,-0.6197,-1.0261, 0.6501,-1.9411, 1.3678,-1.9513
09-Sep-2020 10:30:56.157,-0.3353,-0.7976, 0.0347,-0.6328,-0.9834, 0.5663,-1.9129, 1.3639,-1.9906
09-Sep-2020 10:30:56.167,-0.3508,-0.7956, 0.0002,-0.5806,-0.8984, 0.4260,-1.8861, 1.3605,-2.0279
09-Sep-2020 10:30:56.177,-0.3566,-0.7983,-0.0360,-0.4763,-0.8048, 0.2468,-1.8637, 1.3581,-2.0600
09-Sep-2020 10:30:56.186,-0.3523,-0.8139,-0.0588,-0.3604,-0.7059, 0.0460,-1.8477, 1.3571,-2.0846
09-Sep-2020 10:30:56.197,-0.3387,-0.8475,-0.0807,-0.2309,-0.6212,-0.1664,-1.8384, 1.3575,-2.1013
09-Sep-2020 10:30:56.206,-0.3011,-0.8899,-0.1086,-0.0943,-0.5385,-0.3523,-1.8364, 1.3596,-2.1097
09-Sep-2020 10:30:56.216,-0.2295,-0.9241,-0.1347, 0.0374,-0.4687,-0.4668,-1.8419, 1.3631,-2.1096
09-Sep-2020 10:30:56.226,-0.1536,-0.9370,-0.1639, 0.1763,-0.4878,-0.5121,-1.8545, 1.3674,-2.1015
09-Sep-2020 10:30:56.236,-0.0894,-0.9289,-0.1682, 0.3006,-0.6089,-0.4945,-1.8749, 1.3716,-2.0858
09-Sep-2020 10:30:56.246,-0.0402,-0.9080,-0.1246, 0.3700,-0.7980,-0.4232,-1.9027, 1.3753,-2.0636
09-Sep-2020 10:30:56.256,-0.0158,-0.8876,-0.0567, 0.3678,-1.0129,-0.3321,-1.9355, 1.3779,-2.0383
09-Sep-2020 10:30:56.266,-0.0229,-0.8619, 0.0282, 0.2941,-1.2236,-0.2124,-1.9691, 1.3795,-2.0144
09-Sep-2020 10:30:56.276,-0.0486,-0.8302, 0.1249, 0.1655,-1.3825,-0.0807,-1.9994, 1.3802,-1.9959
09-Sep-2020 10:30:56.286,-0.0802,-0.8018, 0.2068,-0.0032,-1.4797, 0.0398,-2.0225, 1.3802,-1.9863
09-Sep-2020 10:30:56.296,-0.1038,-0.7822, 0.2622,-0.1749,-1.5050, 0.1399,-2.0362, 1.3798,-1.9874
09-Sep-2020 10:30:56.306,-0.1240,-0.7603, 0.2916,-0.3220,-1.4739, 0.2171,-2.0399, 1.3793,-1.9988
09-Sep-2020 10:30:56.316,-0.1559,-0.7353, 0.3002,-0.4139,-1.4072, 0.2689,-2.0350, 1.3787,-2.0187
09-Sep-2020 10:30:56.326,-0.1938,-0.7277, 0.2947,-0.4553,-1.3069, 0.2860,-2.0241, 1.3780,-2.0441
09-Sep-2020 10:30:56.336,-0.2323,-0.7370, 0.2823,-0.4495,-1.1852, 0.2570,-2.0101, 1.3773,-2.0716
09-Sep-2020 10:30:56.346,-0.2621,-0.7577, 0.2486,-0.4208,-1.0575, 0.2033,-1.9959, 1.3768,-2.0981
09-Sep-2020 10:30:56.356,-0.2751,-0.7857, 0.2025,-0.3642,-0.9694, 0.1339,-1.9829, 1.3766,-2.1221
09-Sep-2020 10:30:56.366,-0.2795,-0.8158, 0.1709,-0.3136,-0.9507, 0.0717,-1.9729, 1.3768,-2.1421
09-Sep-2020 10:30:56.375,-0.2867,-0.8509, 0.1600,-0.3001,-0.9565, 0.0080,-1.9663, 1.3772,-2.1585
09-Sep-2020 10:30:56.385,-0.2917,-0.8966, 0.1467,-0.3097,-0.9536,-0.0691,-1.9616, 1.3782,-2.1730
09-Sep-2020 10:30:56.395,-0.2798,-0.9528, 0.1178,-0.2966,-0.9337,-0.1468,-1.9579, 1.3800,-2.1865
09-Sep-2020 10:30:56.406,-0.2625,-1.0071, 0.0732,-0.2225,-0.8790,-0.2117,-1.9560, 1.3823,-2.1978
09-Sep-2020 10:30:56.415,-0.2376,-1.0628, 0.0209,-0.0802,-0.8285,-0.2491,-1.9584, 1.3850,-2.2043
09-Sep-2020 10:30:56.425,-0.2109,-1.1075,-0.0107, 0.0985,-0.8226,-0.2404,-1.9679, 1.3875,-2.2031
09-Sep-2020 10:30:56.435,-0.1979,-1.1413, 0.0026, 0.2440,-0.8476,-0.2044,-1.9859, 1.3892,-2.1931
09-Sep-2020 10:30:56.445,-0.2029,-1.1669, 0.0551, 0.2994,-0.8978,-0.1637,-2.0108, 1.3900,-2.1764
09-Sep-2020 10:30:56.456,-0.2153,-1.1824, 0.1263, 0.2463,-0.9631,-0.1261,-2.0380, 1.3901,-2.1579
09-Sep-2020 10:30:56.465,-0.2259,-1.2038, 0.1924, 0.1222,-0.9999,-0.0870,-2.0624, 1.3901,-2.1428
09-Sep-2020 10:30:56.475,-0.2353,-1.2287, 0.2294,-0.0118,-0.9612,-0.0590,-2.0804, 1.3902,-2.1345
09-Sep-2020 10:30:56.485,-0.2282,-1.2483, 0.2219,-0.0947,-0.8598,-0.0270,-2.0912, 1.3907,-2.1333
09-Sep-2020 10:30:56.495,-0.1960,-1.2577, 0.1808,-0.1023,-0.7233, 0.0291,-2.0962, 1.3913,-2.1369
09-Sep-2020 10:30:56.505,-0.1562,-1.2601, 0.1343,-0.0503,-0.6243, 0.0968,-2.0979, 1.3914,-2.1425
09-Sep-2020 10:30:56.515,-0.1281,-1.2527, 0.1139,-0.0081,-0.5893, 0.1789,-2.0989, 1.3907,-2.1478
09-Sep-2020 10:30:56.525,-0.1274,-1.2391, 0.1270,-0.0190,-0.6347, 0.2669,-2.0993, 1.3892,-2.1535
09-Sep-2020 10:30:56.535,-0.1522,-1.2221, 0.1669,-0.1008,-0.6885, 0.3317,-2.0973, 1.3869,-2.1620
09-Sep-2020 10:30:56.545,-0.1762,-1.2053, 0.1919,-0.2179,-0.6852, 0.3400,-2.0906, 1.3845,-2.1757
09-Sep-2020 10:30:56.555,-0.1642,-1.1882, 0.1558,-0.2674,-0.5886, 0.3070,-2.0789, 1.3826,-2.1945
09-Sep-2020 10:30:56.565,-0.1071,-1.1654, 0.0784,-0.1973,-0.4604, 0.2847,-2.0651, 1.3811,-2.2145
09-Sep-2020 10:30:56.575,-0.0529,-1.1390, 0.0190,-0.0290,-0.3723, 0.3085,-2.0541, 1.3794,-2.2304
09-Sep-2020 10:30:56.585,-0.0405,-1.1010, 0.0113, 0.1416,-0.3312, 0.3495,-2.0493, 1.3767,-2.2392
09-Sep-2020 10:30:56.595,-0.0639,-1.0617, 0.0448, 0.2358,-0.3102, 0.3782,-2.0506, 1.3729,-2.2412
09-Sep-2020 10:30:56.604,-0.0913,-1.0297, 0.0989, 0.2179,-0.2857, 0.3957,-2.0550, 1.3684,-2.2398
09-Sep-2020 10:30:56.614,-0.1084,-0.9997, 0.1443, 0.1026,-0.2498, 0.4008,-2.0580, 1.3639,-2.2397
09-Sep-2020 10:30:56.624,-0.1140,-0.9745, 0.1533,-0.0506,-0.1899, 0.3804,-2.0560, 1.3599,-2.2443
09-Sep-2020 10:30:56.635,-0.1093,-0.9531, 0.1323,-0.1755,-0.1032, 0.3410,-2.0478, 1.3567,-2.2546
09-Sep-2020 10:30:56.644,-0.1051,-0.9408, 0.1014,-0.2695, 0.0095, 0.2888,-2.0347, 1.3543,-2.2690
09-Sep-2020 10:30:56.654,-0.1038,-0.9423, 0.0538,-0.3300, 0.1274, 0.2017,-2.0181, 1.3529,-2.2859
09-Sep-2020 10:30:56.664,-0.0894,-0.9601, 0.0023,-0.3673, 0.2573, 0.1021,-1.9997, 1.3524,-2.3034
09-Sep-2020 10:30:56.674,-0.0605,-0.9849,-0.0582,-0.3691, 0.3718, 0.0060,-1.9804, 1.3529,-2.3206
09-Sep-2020 10:30:56.684,-0.0263,-0.9996,-0.1228,-0.3380, 0.4202,-0.0499,-1.9614, 1.3541,-2.3364
09-Sep-2020 10:30:56.694, 0.0047,-1.0009,-0.1704,-0.2974, 0.3937,-0.0627,-1.9438, 1.3557,-2.3501
09-Sep-2020 10:30:56.704, 0.0208,-0.9825,-0.1931,-0.2734, 0.2841,-0.0597,-1.9283, 1.3573,-2.3621
09-Sep-2020 10:30:56.714, 0.0250,-0.9443,-0.1972,-0.2602, 0.0992,-0.0518,-1.9146, 1.3587,-2.3732
09-Sep-2020 10:30:56.724, 0.0212,-0.8936,-0.1666,-0.2397,-0.1108,-0.0493,-1.9032, 1.3600,-2.3840
09-Sep-2020 10:30:56.734, 0.0057,-0.8396,-0.0967,-0.2231,-0.2905,-0.0392,-1.8945, 1.3611,-2.3940
09-Sep-2020 10:30:56.744,-0.0279,-0.7923,-0.0123,-0.2019,-0.4060,-0.0207,-1.8881, 1.3622,-2.4035
09-Sep-2020 10:30:56.754,-0.0677,-0.7510, 0.0588,-0.1685,-0.4316, 0.0048,-1.8834, 1.3629,-2.4124
09-Sep-2020 10:30:56.764,-0.1003,-0.7131, 0.1178,-0.1377,-0.3859, 0.0287,-1.8799, 1.3633,-2.4202
09-Sep-2020 10:30:56.774,-0.1246,-0.6816, 0.1615,-0.1229,-0.3199, 0.0265,-1.8771, 1.3633,-2.4270
09-Sep-2020 10:30:56.784,-0.1386,-0.6572, 0.1938,-0.1168,-0.2595, 0.0161,-1.8745, 1.3634,-2.4330
09-Sep-2020 10:30:56.794,-0.1490,-0.6438, 0.2247,-0.1341,-0.1857, 0.0071,-1.8715, 1.3635,-2.4387
09-Sep-2020 10:30:56.804,-0.1580,-0.6459, 0.2442,-0.1552,-0.1160, 0.0066,-1.8672, 1.3638,-2.4449
09-Sep-2020 10:30:56.814,-0.1707,-0.6623, 0.2497,-0.1768,-0.0391,-0.0025,-1.8613, 1.3641,-2.4522
09-Sep-2020 10:30:56.823,-0.1854,-0.6876, 0.2378,-0.1795, 0.0429,-0.0049,-1.8537, 1.3645,-2.4603
09-Sep-2020 10:30:56.833,-0.1991,-0.7193, 0.2140,-0.1648, 0.1124,-0.0169,-1.8452, 1.3650,-2.4685
09-Sep-2020 10:30:56.843,-0.2008,-0.7602, 0.1873,-0.1446, 0.1440,-0.0225,-1.8369, 1.3655,-2.4759
09-Sep-2020 10:30:56.854,-0.1954,-0.8121, 0.1684,-0.1398, 0.1481,-0.0372,-1.8291, 1.3660,-2.4824
09-Sep-2020 10:30:56.863,-0.1877,-0.8751, 0.1441,-0.1348, 0.1376,-0.0545,-1.8217, 1.3667,-2.4885
09-Sep-2020 10:30:56.873,-0.1716,-0.9267, 0.1257,-0.1214, 0.1343,-0.0449,-1.8147, 1.3675,-2.4942
09-Sep-2020 10:30:56.883,-0.1652,-0.9719, 0.1101,-0.0937, 0.1319,-0.0178,-1.8084, 1.3681,-2.4993
09-Sep-2020 10:30:56.893,-0.1616,-1.0189, 0.0925,-0.0647, 0.1152, 0.0128,-1.8029, 1.3684,-2.5036
09-Sep-2020 10:30:56.903,-0.1578,-1.0654, 0.0739,-0.0307, 0.0864, 0.0230,-1.7987, 1.3684,-2.5067
09-Sep-2020 10:30:56.913,-0.1541,-1.1140, 0.0509, 0.0246, 0.0423, 0.0429,-1.7963, 1.3682,-2.5084
09-Sep-2020 10:30:56.923,-0.1508,-1.1472, 0.0352, 0.0892,-0.0228, 0.0967,-1.7966, 1.3676,-2.5076
09-Sep-2020 10:30:56.933,-0.1675,-1.1645, 0.0443, 0.1280,-0.1082, 0.1694,-1.8000, 1.3664,-2.5044
09-Sep-2020 10:30:56.943,-0.1969,-1.1683, 0.0648, 0.1207,-0.2215, 0.2019,-1.8052, 1.3644,-2.5002
09-Sep-2020 10:30:56.953,-0.2248,-1.1719, 0.0845, 0.0887,-0.3422, 0.1809,-1.8108, 1.3621,-2.4968
09-Sep-2020 10:30:56.963,-0.2542,-1.1909, 0.1073, 0.0734,-0.4227, 0.1225,-1.8163, 1.3601,-2.4946
09-Sep-2020 10:30:56.973,-0.2891,-1.2202, 0.1277, 0.0750,-0.4475, 0.0507,-1.8226, 1.3586,-2.4925
09-Sep-2020 10:30:56.983,-0.3228,-1.2613, 0.1422, 0.0983,-0.3628,-0.0188,-1.8299, 1.3579,-2.4895
09-Sep-2020 10:30:56.992,-0.3299,-1.2997, 0.1284, 0.1269,-0.2255,-0.0933,-1.8382, 1.3578,-2.4847
09-Sep-2020 10:30:57.003,-0.3106,-1.3334, 0.0832, 0.1565,-0.1386,-0.1786,-1.8473, 1.3582,-2.4777
09-Sep-2020 10:30:57.012,-0.2805,-1.3684, 0.0466, 0.1699,-0.1528,-0.2576,-1.8581, 1.3594,-2.4682
09-Sep-2020 10:30:57.022,-0.2726,-1.4033, 0.0547, 0.1421,-0.2186,-0.3220,-1.8707, 1.3613,-2.4568
09-Sep-2020 10:30:57.032,-0.2858,-1.4455, 0.0836, 0.0689,-0.2478,-0.3889,-1.8838, 1.3639,-2.4457
09-Sep-2020 10:30:57.042,-0.2813,-1.4780, 0.0898,-0.0151,-0.1804,-0.4365,-1.8952, 1.3673,-2.4365
09-Sep-2020 10:30:57.053,-0.2338,-1.4707, 0.0467,-0.0604,-0.0208,-0.4404,-1.9032, 1.3714,-2.4301
09-Sep-2020 10:30:57.062,-0.1532,-1.4212,-0.0588,-0.0287, 0.1264,-0.3944,-1.9081, 1.3756,-2.4253
09-Sep-2020 10:30:57.072,-0.0622,-1.3334,-0.1739, 0.0683, 0.1808,-0.2925,-1.9124, 1.3793,-2.4197
09-Sep-2020 10:30:57.082, 0.0229,-1.2106,-0.2518, 0.1971, 0.0659,-0.1141,-1.9192, 1.3816,-2.4111
09-Sep-2020 10:30:57.093, 0.0619,-1.0683,-0.2586, 0.2816,-0.2114, 0.0911,-1.9302, 1.3819,-2.3993
09-Sep-2020 10:30:57.102, 0.0371,-0.9258,-0.1784, 0.2570,-0.5821, 0.2782,-1.9440, 1.3801,-2.3875
09-Sep-2020 10:30:57.112,-0.0526,-0.8066,-0.0494, 0.1033,-0.9605, 0.4340,-1.9564, 1.3765,-2.3808
09-Sep-2020 10:30:57.122,-0.1796,-0.7160, 0.0865,-0.1184,-1.1937, 0.5607,-1.9622, 1.3721,-2.3845
09-Sep-2020 10:30:57.132,-0.2932,-0.6494, 0.1917,-0.3521,-1.2480, 0.6286,-1.9583, 1.3673,-2.4006
09-Sep-2020 10:30:57.142,-0.3831,-0.6019, 0.2654,-0.5767,-1.1615, 0.6337,-1.9440, 1.3628,-2.4277
09-Sep-2020 10:30:57.152,-0.4454,-0.5740, 0.2954,-0.7638,-0.9845, 0.5795,-1.9201, 1.3589,-2.4640
09-Sep-2020 10:30:57.162,-0.4947,-0.5657, 0.2673,-0.8685,-0.7303, 0.4708,-1.8883, 1.3559,-2.5065
09-Sep-2020 10:30:57.172,-0.5194,-0.5697, 0.1988,-0.8692,-0.4236, 0.2775,-1.8520, 1.3539,-2.5511
09-Sep-2020 10:30:57.182,-0.5051,-0.5985, 0.0979,-0.7728,-0.1053, 0.0138,-1.8155, 1.3534,-2.5928
09-Sep-2020 10:30:57.192,-0.4480,-0.6573,-0.0251,-0.5868, 0.1666,-0.2677,-1.7828, 1.3550,-2.6274
09-Sep-2020 10:30:57.202,-0.3658,-0.7206,-0.1380,-0.3291, 0.3751,-0.5093,-1.7576, 1.3586,-2.6515
09-Sep-2020 10:30:57.212,-0.2807,-0.7857,-0.2277,-0.0422, 0.4906,-0.6650,-1.7431, 1.3641,-2.6626
09-Sep-2020 10:30:57.222,-0.1919,-0.8365,-0.2828, 0.2202, 0.4507,-0.7127,-1.7418, 1.3705,-2.6590
09-Sep-2020 10:30:57.232,-0.1279,-0.8519,-0.2912, 0.4078, 0.2562,-0.6588,-1.7544, 1.3770,-2.6418
09-Sep-2020 10:30:57.241,-0.1026,-0.8465,-0.2513, 0.4999,-0.0149,-0.5567,-1.7789, 1.3825,-2.6143
09-Sep-2020 10:30:57.251,-0.1043,-0.8362,-0.1565, 0.4668,-0.2918,-0.4526,-1.8110, 1.3868,-2.5817
09-Sep-2020 10:30:57.261,-0.1157,-0.8234,-0.0395, 0.3184,-0.5374,-0.3532,-1.8441, 1.3899,-2.5510
09-Sep-2020 10:30:57.271,-0.1322,-0.8125, 0.0586, 0.1151,-0.7328,-0.2503,-1.8715, 1.3923,-2.5285
09-Sep-2020 10:30:57.281,-0.1460,-0.8042, 0.1247,-0.0774,-0.8364,-0.1287,-1.8892, 1.3943,-2.5180
09-Sep-2020 10:30:57.291,-0.1638,-0.7988, 0.1607,-0.2308,-0.8499, 0.0014,-1.8958, 1.3956,-2.5197
09-Sep-2020 10:30:57.301,-0.1875,-0.7854, 0.1722,-0.3319,-0.8147, 0.1044,-1.8921, 1.3963,-2.5320
09-Sep-2020 10:30:57.311,-0.2207,-0.7691, 0.1553,-0.3485,-0.7595, 0.1582,-1.8810, 1.3963,-2.5515
09-Sep-2020 10:30:57.321,-0.2584,-0.7562, 0.1412,-0.3040,-0.7194, 0.1438,-1.8675, 1.3958,-2.5729
09-Sep-2020 10:30:57.331,-0.2904,-0.7581, 0.1476,-0.2575,-0.6866, 0.0800,-1.8560, 1.3952,-2.5918
09-Sep-2020 10:30:57.341,-0.3138,-0.7800, 0.1668,-0.2265,-0.6673,-0.0080,-1.8478, 1.3951,-2.6071
09-Sep-2020 10:30:57.351,-0.3286,-0.8191, 0.1848,-0.2014,-0.6264,-0.1091,-1.8424, 1.3957,-2.6193
09-Sep-2020 10:30:57.361,-0.3359,-0.8735, 0.1827,-0.1404,-0.5237,-0.2137,-1.8395, 1.3972,-2.6285
09-Sep-2020 10:30:57.371,-0.3270,-0.9345, 0.1754,-0.0508,-0.3673,-0.3086,-1.8404, 1.3996,-2.6329
09-Sep-2020 10:30:57.381,-0.3049,-0.9937, 0.1599, 0.0381,-0.2192,-0.3741,-1.8461, 1.4026,-2.6309
09-Sep-2020 10:30:57.391,-0.2824,-1.0473, 0.1328, 0.1060,-0.1204,-0.3993,-1.8566, 1.4059,-2.6225
09-Sep-2020 10:30:57.401,-0.2621,-1.0977, 0.1065, 0.1599,-0.0672,-0.3951,-1.8709, 1.4093,-2.6092
09-Sep-2020 10:30:57.411,-0.2483,-1.1525, 0.0872, 0.1847,-0.0524,-0.3658,-1.8884, 1.4125,-2.5922
09-Sep-2020 10:30:57.420,-0.2381,-1.2040, 0.0782, 0.1768,-0.0759,-0.3108,-1.9073, 1.4153,-2.5737
09-Sep-2020 10:30:57.430,-0.2331,-1.2438, 0.0660, 0.1407,-0.1165,-0.2292,-1.9252, 1.4175,-2.5562
09-Sep-2020 10:30:57.440,-0.2206,-1.2619, 0.0644, 0.0916,-0.1666,-0.1571,-1.9402, 1.4191,-2.5423
09-Sep-2020 10:30:57.451,-0.2041,-1.2729, 0.0673, 0.0148,-0.2259,-0.1226,-1.9511, 1.4201,-2.5330
09-Sep-2020 10:30:57.461,-0.1898,-1.2766, 0.0571,-0.0341,-0.2610,-0.1135,-1.9574, 1.4211,-2.5289
09-Sep-2020 10:30:57.471,-0.1752,-1.2780, 0.0365,-0.0117,-0.2466,-0.1152,-1.9609, 1.4222,-2.5279
09-Sep-2020 10:30:57.480,-0.1600,-1.2791, 0.0087, 0.0931,-0.1896,-0.1125,-1.9659, 1.4232,-2.5253
09-Sep-2020 10:30:57.490,-0.1536,-1.2755,-0.0044, 0.2451,-0.1457,-0.1148,-1.9768, 1.4238,-2.5163
09-Sep-2020 10:30:57.500,-0.1653,-1.2692, 0.0105, 0.3707,-0.1202,-0.1368,-1.9962, 1.4238,-2.4981
09-Sep-2020 10:30:57.511,-0.1777,-1.2721, 0.0289, 0.4386,-0.0813,-0.1946,-2.0237, 1.4234,-2.4715
09-Sep-2020 10:30:57.520,-0.1651,-1.2764, 0.0344, 0.4737,-0.0180,-0.2504,-2.0565, 1.4231,-2.4392
09-Sep-2020 10:30:57.530,-0.1249,-1.2735, 0.0294, 0.4790, 0.0303,-0.2644,-2.0922, 1.4229,-2.4032
09-Sep-2020 10:30:57.540,-0.0859,-1.2646, 0.0284, 0.4643, 0.0336,-0.2358,-2.1281, 1.4226,-2.3667
09-Sep-2020 10:30:57.550,-0.0575,-1.2474, 0.0346, 0.4307, 0.0375,-0.1932,-2.1620, 1.4220,-2.3320
09-Sep-2020 10:30:57.560,-0.0276,-1.2174, 0.0429, 0.3675, 0.0691,-0.1380,-2.1921, 1.4210,-2.3013
09-Sep-2020 10:30:57.570, 0.0012,-1.1818, 0.0321, 0.3073, 0.1102,-0.0566,-2.2159, 1.4199,-2.2764
09-Sep-2020 10:30:57.580, 0.0144,-1.1421, 0.0199, 0.2546, 0.1219, 0.0379,-2.2328, 1.4184,-2.2583
09-Sep-2020 10:30:57.590, 0.0012,-1.0932, 0.0171, 0.1738, 0.0993, 0.1238,-2.2428, 1.4164,-2.2470
09-Sep-2020 10:30:57.600,-0.0299,-1.0388, 0.0201, 0.0518, 0.0609, 0.1769,-2.2455, 1.4143,-2.2433
09-Sep-2020 10:30:57.610,-0.0609,-0.9927, 0.0125,-0.0794, 0.0125, 0.1824,-2.2405, 1.4126,-2.2478
09-Sep-2020 10:30:57.619,-0.0760,-0.9579, 0.0028,-0.1670,-0.0162, 0.1478,-2.2296, 1.4116,-2.2587
09-Sep-2020 10:30:57.629,-0.0886,-0.9290, 0.0110,-0.2190, 0.0068, 0.1060,-2.2159, 1.4114,-2.2726
09-Sep-2020 10:30:57.639,-0.1008,-0.9102, 0.0258,-0.2634, 0.0533, 0.0632,-2.2010, 1.4118,-2.2877
09-Sep-2020 10:30:57.650,-0.1028,-0.8977, 0.0165,-0.2887, 0.1146, 0.0127,-2.1848, 1.4127,-2.3035
09-Sep-2020 10:30:57.659,-0.0902,-0.8822,-0.0090,-0.2897, 0.1629,-0.0266,-2.1683, 1.4142,-2.3191
09-Sep-2020 10:30:57.669,-0.0699,-0.8599,-0.0335,-0.2669, 0.1713,-0.0317,-2.1523, 1.4159,-2.3337
09-Sep-2020 10:30:57.679,-0.0484,-0.8248,-0.0427,-0.2395, 0.1119,-0.0040,-2.1373, 1.4175,-2.3472
09-Sep-2020 10:30:57.689,-0.0381,-0.7884,-0.0211,-0.2433,-0.0031, 0.0395,-2.1230, 1.4187,-2.3606
09-Sep-2020 10:30:57.699,-0.0458,-0.7499, 0.0042,-0.2591,-0.1114, 0.0910,-2.1080, 1.4196,-2.3758
09-Sep-2020 10:30:57.709,-0.0575,-0.7143, 0.0294,-0.2741,-0.1855, 0.1313,-2.0915, 1.4200,-2.3935
09-Sep-2020 10:30:57.719,-0.0709,-0.6820, 0.0686,-0.2751,-0.2422, 0.1655,-2.0736, 1.4201,-2.4136
09-Sep-2020 10:30:57.729,-0.0927,-0.6580, 0.1119,-0.2739,-0.2387, 0.1924,-2.0550, 1.4199,-2.4347
09-Sep-2020 10:30:57.739,-0.1118,-0.6455, 0.1278,-0.2463,-0.1880, 0.2070,-2.0358, 1.4194,-2.4566
09-Sep-2020 10:30:57.749,-0.1299,-0.6382, 0.1166,-0.1845,-0.1204, 0.2105,-2.0176, 1.4185,-2.4769
09-Sep-2020 10:30:57.759,-0.1457,-0.6357, 0.1164,-0.1142,-0.0687, 0.2017,-2.0023, 1.4173,-2.4936
09-Sep-2020 10:30:57.769,-0.1634,-0.6456, 0.1166,-0.0699,-0.0351, 0.1763,-1.9909, 1.4159,-2.5058
09-Sep-2020 10:30:57.779,-0.1740,-0.6695, 0.1026,-0.0338,-0.0276, 0.1253,-1.9826, 1.4145,-2.5145
09-Sep-2020 10:30:57.789,-0.1685,-0.7104, 0.0809, 0.0281,-0.0226, 0.0778,-1.9781, 1.4134,-2.5195
09-Sep-2020 10:30:57.799,-0.1535,-0.7567, 0.0691, 0.0967,-0.0384, 0.0541,-1.9780, 1.4125,-2.5198
09-Sep-2020 10:30:57.809,-0.1413,-0.8131, 0.0788, 0.1296,-0.0732, 0.0462,-1.9824, 1.4115,-2.5157
09-Sep-2020 10:30:57.819,-0.1348,-0.8736, 0.0830, 0.1316,-0.1271, 0.0368,-1.9892, 1.4105,-2.5096
09-Sep-2020 10:30:57.829,-0.1278,-0.9164, 0.0781, 0.1217,-0.2107, 0.0428,-1.9968, 1.4096,-2.5032
09-Sep-2020 10:30:57.838,-0.1210,-0.9516, 0.0694, 0.1332,-0.3030, 0.0516,-2.0047, 1.4086,-2.4974
09-Sep-2020 10:30:57.848,-0.1170,-0.9973, 0.0654, 0.1698,-0.3713, 0.0505,-2.0138, 1.4075,-2.4912
09-Sep-2020 10:30:57.858,-0.1060,-1.0394, 0.0756, 0.2360,-0.4010, 0.0483,-2.0255, 1.4062,-2.4831
09-Sep-2020 10:30:57.868,-0.0933,-1.0788, 0.0938, 0.3193,-0.4009, 0.0591,-2.0408, 1.4046,-2.4716
09-Sep-2020 10:30:57.879,-0.0929,-1.1069, 0.1166, 0.3963,-0.4324, 0.0878,-2.0599, 1.4026,-2.4563
09-Sep-2020 10:30:57.888,-0.1112,-1.1211, 0.1428, 0.4370,-0.4957, 0.1126,-2.0819, 1.3999,-2.4384
09-Sep-2020 10:30:57.898,-0.1446,-1.1288, 0.1736, 0.4400,-0.5643, 0.1109,-2.1051, 1.3967,-2.4198
09-Sep-2020 10:30:57.908,-0.1836,-1.1380, 0.2246, 0.4041,-0.6246, 0.0833,-2.1285, 1.3934,-2.4018
09-Sep-2020 10:30:57.918,-0.2298,-1.1665, 0.2746, 0.3366,-0.6319, 0.0286,-2.1508, 1.3905,-2.3854
09-Sep-2020 10:30:57.929,-0.2630,-1.2064, 0.2869, 0.2612,-0.5581,-0.0303,-2.1712, 1.3883,-2.3710
09-Sep-2020 10:30:57.938,-0.2827,-1.2382, 0.2611, 0.2138,-0.4445,-0.0756,-2.1891, 1.3870,-2.3584
09-Sep-2020 10:30:57.948,-0.2787,-1.2640, 0.1963, 0.1962,-0.3607,-0.1283,-2.2052, 1.3863,-2.3465
09-Sep-2020 10:30:57.958,-0.2579,-1.2981, 0.1257, 0.2069,-0.3366,-0.1953,-2.2214, 1.3861,-2.3338
09-Sep-2020 10:30:57.968,-0.2480,-1.3349, 0.0861, 0.2269,-0.3709,-0.2612,-2.2398, 1.3862,-2.3185
09-Sep-2020 10:30:57.978,-0.2560,-1.3804, 0.0832, 0.2104,-0.3851,-0.3165,-2.2614, 1.3868,-2.3003
09-Sep-2020 10:30:57.988,-0.2543,-1.4161, 0.0747, 0.1523,-0.3441,-0.3565,-2.2845, 1.3878,-2.2807
09-Sep-2020 10:30:57.998,-0.2281,-1.4249, 0.0344, 0.0878,-0.2620,-0.3707,-2.3067, 1.3893,-2.2616
09-Sep-2020 10:30:58.008,-0.1741,-1.4037,-0.0462, 0.0637,-0.2046,-0.3542,-2.3265, 1.3913,-2.2441
09-Sep-2020 10:30:58.018,-0.1054,-1.3582,-0.1313, 0.0960,-0.2169,-0.2865,-2.3445, 1.3933,-2.2279
09-Sep-2020 10:30:58.028,-0.0507,-1.2834,-0.1798, 0.1526,-0.3145,-0.1763,-2.3616, 1.3946,-2.2129
09-Sep-2020 10:30:58.037,-0.0122,-1.1856,-0.1707, 0.1714,-0.5155,-0.0318,-2.3774, 1.3946,-2.2001
09-Sep-2020 10:30:58.048,-0.0087,-1.0813,-0.0952, 0.1186,-0.7722, 0.1122,-2.3901, 1.3936,-2.1924
09-Sep-2020 10:30:58.058,-0.0585,-0.9814, 0.0215,-0.0107,-0.9910, 0.2271,-2.3973, 1.3919,-2.1929
09-Sep-2020 10:30:58.068,-0.1409,-0.8996, 0.1379,-0.1784,-1.1002, 0.2991,-2.3974, 1.3905,-2.2027
09-Sep-2020 10:30:58.078,-0.2115,-0.8361, 0.2331,-0.3484,-1.0415, 0.3317,-2.3896, 1.3897,-2.2217
09-Sep-2020 10:30:58.088,-0.2567,-0.7807, 0.2800,-0.4858,-0.8579, 0.3148,-2.3738, 1.3898,-2.2482
09-Sep-2020 10:30:58.098,-0.2817,-0.7424, 0.2768,-0.5638,-0.6161, 0.2479,-2.3515, 1.3910,-2.2795
09-Sep-2020 10:30:58.108,-0.2878,-0.7165, 0.2478,-0.5907,-0.3586, 0.1516,-2.3259, 1.3930,-2.3117
09-Sep-2020 10:30:58.117,-0.2812,-0.7038, 0.1756,-0.5546,-0.1301, 0.0310,-2.2996, 1.3958,-2.3421
09-Sep-2020 10:30:58.127,-0.2548,-0.7087, 0.0733,-0.4408, 0.0513,-0.1148,-2.2762, 1.3991,-2.3672
09-Sep-2020 10:30:58.137,-0.2032,-0.7358,-0.0074,-0.2803, 0.1732,-0.2459,-2.2604, 1.4027,-2.3828
09-Sep-2020 10:30:58.147,-0.1378,-0.7738,-0.0465,-0.1304, 0.2247,-0.3118,-2.2548, 1.4063,-2.3868
09-Sep-2020 10:30:58.157,-0.0808,-0.7998,-0.0602,-0.0256, 0.1735,-0.2994,-2.2581, 1.4094,-2.3813
09-Sep-2020 10:30:58.167,-0.0411,-0.7986,-0.0516, 0.0037, 0.0292,-0.2318,-2.2664, 1.4118,-2.3711
09-Sep-2020 10:30:58.177,-0.0239,-0.7843,-0.0179,-0.0355,-0.1721,-0.1363,-2.2751, 1.4135,-2.3620
09-Sep-2020 10:30:58.187,-0.0270,-0.7628, 0.0388,-0.1263,-0.3675,-0.0363,-2.2804, 1.4147,-2.3584
09-Sep-2020 10:30:58.197,-0.0539,-0.7456, 0.1025,-0.2318,-0.5152, 0.0483,-2.2793, 1.4157,-2.3632
09-Sep-2020 10:30:58.207,-0.0951,-0.7412, 0.1469,-0.3150,-0.5659, 0.1015,-2.2711, 1.4168,-2.3767
09-Sep-2020 10:30:58.217,-0.1286,-0.7366, 0.1690,-0.3394,-0.5293, 0.1417,-2.2569, 1.4179,-2.3967
09-Sep-2020 10:30:58.227,-0.1579,-0.7336, 0.1722,-0.3071,-0.4365, 0.1646,-2.2393, 1.4189,-2.4198
09-Sep-2020 10:30:58.237,-0.1915,-0.7273, 0.1767,-0.2524,-0.3353, 0.1725,-2.2212, 1.4193,-2.4425
09-Sep-2020 10:30:58.247,-0.2267,-0.7248, 0.1716,-0.2178,-0.2619, 0.1403,-2.2045, 1.4194,-2.4628
09-Sep-2020 10:30:58.257,-0.2558,-0.7372, 0.1475,-0.2000,-0.2222, 0.0590,-2.1900, 1.4195,-2.4801
09-Sep-2020 10:30:58.267,-0.2728,-0.7697, 0.1111,-0.1665,-0.2135,-0.0592,-2.1794, 1.4201,-2.4932
09-Sep-2020 10:30:58.277,-0.2791,-0.8143, 0.0741,-0.0962,-0.2082,-0.1689,-2.1748, 1.4215,-2.5000
09-Sep-2020 10:30:58.287,-0.2811,-0.8687, 0.0545, 0.0052,-0.1919,-0.2739,-2.1780, 1.4233,-2.4988
09-Sep-2020 10:30:58.297,-0.2695,-0.9397, 0.0583, 0.1038,-0.1584,-0.3689,-2.1906, 1.4254,-2.4880
09-Sep-2020 10:30:58.307,-0.2383,-1.0074, 0.0718, 0.1771,-0.0834,-0.4331,-2.2126, 1.4277,-2.4673
09-Sep-2020 10:30:58.316,-0.1986,-1.0650, 0.0630, 0.2301, 0.0034,-0.4566,-2.2413, 1.4300,-2.4391
09-Sep-2020 10:30:58.326,-0.1545,-1.1113, 0.0471, 0.2771, 0.0546,-0.4288,-2.2741, 1.4319,-2.4060
09-Sep-2020 10:30:58.336,-0.1219,-1.1375, 0.0409, 0.3032, 0.0565,-0.3372,-2.3081, 1.4332,-2.3713
09-Sep-2020 10:30:58.347,-0.1183,-1.1561, 0.0510, 0.3067, 0.0109,-0.2181,-2.3397, 1.4335,-2.3388
09-Sep-2020 10:30:58.356,-0.1417,-1.1692, 0.0780, 0.2789,-0.0626,-0.0989,-2.3660, 1.4328,-2.3121
09-Sep-2020 10:30:58.366,-0.1642,-1.1678, 0.1186, 0.2073,-0.1205,-0.0054,-2.3853, 1.4315,-2.2933
09-Sep-2020 10:30:58.376,-0.1748,-1.1601, 0.1484, 0.1211,-0.1533, 0.0498,-2.3965, 1.4300,-2.2832
09-Sep-2020 10:30:58.386,-0.1814,-1.1521, 0.1512, 0.0538,-0.1608, 0.0545,-2.4011, 1.4287,-2.2800
09-Sep-2020 10:30:58.396,-0.1711,-1.1612, 0.1444, 0.0386,-0.1365, 0.0226,-2.4026, 1.4278,-2.2802
09-Sep-2020 10:30:58.406,-0.1521,-1.1828, 0.1328, 0.0633,-0.0790,-0.0001,-2.4045, 1.4273,-2.2796
09-Sep-2020 10:30:58.416,-0.1394,-1.1959, 0.1190, 0.1374,-0.0024, 0.0079,-2.4078, 1.4267,-2.2770
09-Sep-2020 10:30:58.426,-0.1381,-1.1937, 0.1212, 0.2216, 0.0638, 0.0229,-2.4136, 1.4256,-2.2712
09-Sep-2020 10:30:58.436,-0.1497,-1.1964, 0.1385, 0.2629, 0.1138, 0.0303,-2.4214, 1.4237,-2.2627
09-Sep-2020 10:30:58.446,-0.1563,-1.2043, 0.1481, 0.2496, 0.1724, 0.0168,-2.4299, 1.4215,-2.2529
09-Sep-2020 10:30:58.456,-0.1352,-1.2061, 0.1386, 0.2012, 0.2433, 0.0023,-2.4375, 1.4194,-2.2435
09-Sep-2020 10:30:58.466,-0.0944,-1.2036, 0.0814, 0.1703, 0.3117, 0.0000,-2.4433, 1.4178,-2.2352
09-Sep-2020 10:30:58.475,-0.0539,-1.1974, 0.0051, 0.2073, 0.3298, 0.0273,-2.4473, 1.4164,-2.2281
09-Sep-2020 10:30:58.487,-0.0343,-1.1796,-0.0357, 0.2702, 0.2777, 0.0933,-2.4509, 1.4146,-2.2212
09-Sep-2020 10:30:58.495,-0.0492,-1.1505,-0.0216, 0.3104, 0.1657, 0.1969,-2.4537, 1.4118,-2.2156
09-Sep-2020 10:30:58.507,-0.0942,-1.1092, 0.0349, 0.2764, 0.0382, 0.2756,-2.4545, 1.4082,-2.2132
09-Sep-2020 10:30:58.515,-0.1439,-1.0681, 0.1177, 0.1560,-0.0401, 0.2930,-2.4515, 1.4043,-2.2157
09-Sep-2020 10:30:58.525,-0.1774,-1.0373, 0.1843,-0.0174,-0.0374, 0.2518,-2.4443, 1.4012,-2.2235
09-Sep-2020 10:30:58.535,-0.1834,-1.0446, 0.1995,-0.1677, 0.0750, 0.1557,-2.4326, 1.3997,-2.2356
09-Sep-2020 10:30:58.545,-0.1763,-1.0838, 0.1548,-0.2405, 0.2743, 0.0230,-2.4188, 1.3999,-2.2488
09-Sep-2020 10:30:58.555,-0.1399,-1.1158, 0.0539,-0.2106, 0.4994,-0.0959,-2.4058, 1.4014,-2.2592
09-Sep-2020 10:30:58.565,-0.0688,-1.1377,-0.0494,-0.0856, 0.6596,-0.1604,-2.3966, 1.4034,-2.2635
09-Sep-2020 10:30:58.575,-0.0046,-1.1487,-0.1193, 0.0461, 0.7002,-0.1623,-2.3931, 1.4050,-2.2605
09-Sep-2020 10:30:58.585, 0.0384,-1.1405,-0.1410, 0.1198, 0.6125,-0.1224,-2.3948, 1.4057,-2.2518
09-Sep-2020 10:30:58.595, 0.0665,-1.1144,-0.1237, 0.1213, 0.4287,-0.0492,-2.3987, 1.4056,-2.2418
09-Sep-2020 10:30:58.605, 0.0821,-1.0631,-0.0764, 0.0505, 0.2025, 0.0371,-2.4011, 1.4050,-2.2350
09-Sep-2020 10:30:58.615, 0.0824,-1.0028,-0.0074,-0.0734,-0.0068, 0.1558,-2.3989, 1.4043,-2.2353
09-Sep-2020 10:30:58.625, 0.0572,-0.9397, 0.0528,-0.2022,-0.1722, 0.2788,-2.3891, 1.4037,-2.2453
09-Sep-2020 10:30:58.635, 0.0091,-0.8653, 0.1093,-0.2964,-0.2567, 0.3940,-2.3707, 1.4032,-2.2657
09-Sep-2020 10:30:58.645,-0.0446,-0.7849, 0.1591,-0.3590,-0.2305, 0.5008,-2.3444, 1.4024,-2.2948
09-Sep-2020 10:30:58.655,-0.0852,-0.7081, 0.1772,-0.3900,-0.1771, 0.5531,-2.3113, 1.4012,-2.3307
09-Sep-2020 10:30:58.664,-0.1209,-0.6378, 0.1842,-0.3842,-0.1222, 0.5438,-2.2752, 1.3996,-2.3692
09-Sep-2020 10:30:58.675,-0.1551,-0.5978, 0.1873,-0.3546,-0.0327, 0.4768,-2.2397, 1.3978,-2.4064
09-Sep-2020 10:30:58.684,-0.1716,-0.5857, 0.1545,-0.2740, 0.0447, 0.3783,-2.2078, 1.3961,-2.4392
09-Sep-2020 10:30:58.694,-0.1658,-0.5802, 0.1103,-0.1440, 0.0946, 0.2694,-2.1824, 1.3945,-2.4645
09-Sep-2020 10:30:58.704,-0.1478,-0.5945, 0.0849, 0.0041, 0.1113, 0.1596,-2.1664, 1.3930,-2.4798
09-Sep-2020 10:30:58.715,-0.1373,-0.6288, 0.0719, 0.1310, 0.1001, 0.0490,-2.1605, 1.3916,-2.4847
09-Sep-2020 10:30:58.725,-0.1328,-0.6697, 0.0764, 0.2201, 0.0694,-0.0446,-2.1639, 1.3904,-2.4803
09-Sep-2020 10:30:58.734,-0.1233,-0.7263, 0.0999, 0.2735, 0.0741,-0.1013,-2.1740, 1.3895,-2.4693
09-Sep-2020 10:30:58.744,-0.1119,-0.7776, 0.1293, 0.2953, 0.1184,-0.1267,-2.1884, 1.3887,-2.4540
09-Sep-2020 10:30:58.754,-0.0957,-0.8253, 0.1488, 0.2766, 0.1493,-0.1347,-2.2039, 1.3879,-2.4370
09-Sep-2020 10:30:58.765,-0.0710,-0.8731, 0.1465, 0.2351, 0.1480,-0.1223,-2.2186, 1.3873,-2.4206
09-Sep-2020 10:30:58.774,-0.0465,-0.9171, 0.1413, 0.1906, 0.1171,-0.0801,-2.2309, 1.3867,-2.4066
09-Sep-2020 10:30:58.784,-0.0334,-0.9517, 0.1369, 0.1511, 0.0671,-0.0101,-2.2402, 1.3861,-2.3960
09-Sep-2020 10:30:58.794,-0.0347,-0.9766, 0.1375, 0.1194, 0.0138, 0.0681,-2.2460, 1.3852,-2.3894
09-Sep-2020 10:30:58.804,-0.0508,-1.0036, 0.1578, 0.0876,-0.0334, 0.1331,-2.2484, 1.3838,-2.3868
09-Sep-2020 10:30:58.814,-0.0857,-1.0300, 0.1898, 0.0340,-0.0657, 0.1747,-2.2477, 1.3822,-2.3878
09-Sep-2020 10:30:58.824,-0.1358,-1.0449, 0.2063,-0.0313,-0.1086, 0.1813,-2.2440, 1.3805,-2.3923
09-Sep-2020 10:30:58.834,-0.1870,-1.0674, 0.2034,-0.0876,-0.1565, 0.1426,-2.2381, 1.3793,-2.3995
09-Sep-2020 10:30:58.844,-0.2266,-1.0925, 0.1819,-0.1087,-0.1768, 0.0608,-2.2317, 1.3786,-2.4076
09-Sep-2020 10:30:58.854,-0.2424,-1.1264, 0.1468,-0.0530,-0.1379,-0.0418,-2.2272, 1.3787,-2.4139
09-Sep-2020 10:30:58.864,-0.2301,-1.1713, 0.1199, 0.0770,-0.0496,-0.1335,-2.2278, 1.3792,-2.4147
09-Sep-2020 10:30:58.874,-0.2150,-1.2127, 0.1039, 0.2070, 0.0686,-0.1905,-2.2355, 1.3797,-2.4074
09-Sep-2020 10:30:58.884,-0.1930,-1.2333, 0.0795, 0.2994, 0.1420,-0.2131,-2.2490, 1.3799,-2.3929
09-Sep-2020 10:30:58.894,-0.1670,-1.2534, 0.0505, 0.3383, 0.1091,-0.2203,-2.2662, 1.3796,-2.3741
09-Sep-2020 10:30:58.904,-0.1419,-1.2766, 0.0429, 0.3229,-0.0265,-0.1986,-2.2855, 1.3790,-2.3534
09-Sep-2020 10:30:58.914,-0.1399,-1.2927, 0.0684, 0.2411,-0.2084,-0.1631,-2.3046, 1.3783,-2.3342
09-Sep-2020 10:30:58.923,-0.1608,-1.3010, 0.1159, 0.1012,-0.3841,-0.1209,-2.3211, 1.3778,-2.3195
09-Sep-2020 10:30:58.933,-0.1963,-1.3101, 0.1755,-0.0643,-0.4773,-0.0890,-2.3326, 1.3779,-2.3117
09-Sep-2020 10:30:58.943,-0.2425,-1.3146, 0.2009,-0.2187,-0.4162,-0.0829,-2.3379, 1.3789,-2.3110
09-Sep-2020 10:30:58.953,-0.2654,-1.3085, 0.1608,-0.3155,-0.2288,-0.1139,-2.3369, 1.3809,-2.3162
09-Sep-2020 10:30:58.963,-0.2234,-1.2728, 0.0424,-0.3151,-0.0052,-0.1534,-2.3315, 1.3838,-2.3240
09-Sep-2020 10:30:58.973,-0.1393,-1.2018,-0.1078,-0.1998, 0.1191,-0.1415,-2.3250, 1.3869,-2.3307
09-Sep-2020 10:30:58.983,-0.0726,-1.1203,-0.2077,-0.0307, 0.0812,-0.0704,-2.3211, 1.3892,-2.3335
09-Sep-2020 10:30:58.994,-0.0365,-1.0326,-0.2099, 0.1037,-0.1002, 0.0411,-2.3216, 1.3898,-2.3323
09-Sep-2020 10:30:59.003,-0.0477,-0.9490,-0.1277, 0.1260,-0.3413, 0.1629,-2.3248, 1.3888,-2.3301
09-Sep-2020 10:30:59.013,-0.1131,-0.8786,-0.0105, 0.0396,-0.5604, 0.2720,-2.3266, 1.3868,-2.3317
09-Sep-2020 10:30:59.023,-0.1985,-0.8313, 0.1037,-0.1175,-0.6863, 0.3566,-2.3235, 1.3845,-2.3405
09-Sep-2020 10:30:59.033,-0.2714,-0.8015, 0.1828,-0.2838,-0.7028, 0.3959,-2.3129, 1.3826,-2.3582
09-Sep-2020 10:30:59.043,-0.3247,-0.7794, 0.2263,-0.4410,-0.6078, 0.3565,-2.2951, 1.3816,-2.3833
09-Sep-2020 10:30:59.053,-0.3513,-0.7631, 0.2375,-0.5899,-0.4318, 0.2526,-2.2715, 1.3817,-2.4135
09-Sep-2020 10:30:59.063,-0.3649,-0.7653, 0.2055,-0.6869,-0.2295, 0.1051,-2.2437, 1.3834,-2.4461
09-Sep-2020 10:30:59.072,-0.3693,-0.8030, 0.1328,-0.6894, 0.0125,-0.0854,-2.2141, 1.3867,-2.4786
09-Sep-2020 10:30:59.083,-0.3294,-0.8603, 0.0244,-0.5736, 0.2782,-0.2828,-2.1869, 1.3913,-2.5061
09-Sep-2020 10:30:59.093,-0.2495,-0.9104,-0.0939,-0.3643, 0.5001,-0.4319,-2.1667, 1.3967,-2.5238
09-Sep-2020 10:30:59.102,-0.1738,-0.9527,-0.1935,-0.1236, 0.5875,-0.5104,-2.1582, 1.4022,-2.5275
09-Sep-2020 10:30:59.112,-0.0948,-0.9816,-0.2322, 0.0755, 0.5215,-0.4966,-2.1628, 1.4070,-2.5170
09-Sep-2020 10:30:59.122,-0.0381,-0.9897,-0.2108, 0.1730, 0.3183,-0.4015,-2.1780, 1.4106,-2.4964
09-Sep-2020 10:30:59.133,-0.0169,-0.9803,-0.1504, 0.1577, 0.0460,-0.2602,-2.1972, 1.4128,-2.4738
09-Sep-2020 10:30:59.142,-0.0110,-0.9512,-0.0583, 0.0331,-0.2258,-0.0902,-2.2138, 1.4139,-2.4565
09-Sep-2020 10:30:59.152,-0.0262,-0.9120, 0.0401,-0.1428,-0.4409, 0.0748,-2.2208, 1.4144,-2.4517
09-Sep-2020 10:30:59.162,-0.0603,-0.8635, 0.1254,-0.3093,-0.5697, 0.2258,-2.2151, 1.4146,-2.4620
09-Sep-2020 10:30:59.172,-0.1099,-0.8109, 0.1860,-0.4352,-0.5976, 0.3343,-2.1963, 1.4145,-2.4867
09-Sep-2020 10:30:59.182,-0.1640,-0.7611, 0.2037,-0.4801,-0.5292, 0.3718,-2.1679, 1.4142,-2.5213
09-Sep-2020 10:30:59.192,-0.2030,-0.7238, 0.2002,-0.4523,-0.3959, 0.3481,-2.1352, 1.4137,-2.5597
09-Sep-2020 10:30:59.202,-0.2264,-0.6992, 0.1850,-0.3776,-0.2596, 0.2788,-2.1037, 1.4130,-2.5956
09-Sep-2020 10:30:59.212,-0.2382,-0.6980, 0.1629,-0.2701,-0.1406, 0.1787,-2.0771, 1.4124,-2.6252
09-Sep-2020 10:30:59.222,-0.2434,-0.7127, 0.1367,-0.1476,-0.0674, 0.0576,-2.0585, 1.4121,-2.6454
09-Sep-2020 10:30:59.232,-0.2376,-0.7321, 0.1214,-0.0310,-0.0236,-0.0582,-2.0494, 1.4122,-2.6554
09-Sep-2020 10:30:59.242,-0.2318,-0.7614, 0.1110, 0.0520,-0.0295,-0.1627,-2.0496, 1.4127,-2.6555
09-Sep-2020 10:30:59.252,-0.2357,-0.8091, 0.1111, 0.1125,-0.0304,-0.2537,-2.0571, 1.4138,-2.6481
09-Sep-2020 10:30:59.262,-0.2292,-0.8661, 0.1140, 0.1356, 0.0016,-0.3187,-2.0710, 1.4154,-2.6344
09-Sep-2020 10:30:59.272,-0.2072,-0.9133, 0.1151, 0.1364, 0.0669,-0.3526,-2.0883, 1.4175,-2.6168
09-Sep-2020 10:30:59.282,-0.1786,-0.9592, 0.1090, 0.1152, 0.1295,-0.3387,-2.1066, 1.4197,-2.5976
09-Sep-2020 10:30:59.292,-0.1603,-0.9997, 0.0907, 0.0881, 0.1607,-0.2773,-2.1231, 1.4219,-2.5798
09-Sep-2020 10:30:59.302,-0.1590,-1.0239, 0.0518, 0.0757, 0.1432,-0.1851,-2.1363, 1.4236,-2.5648
09-Sep-2020 10:30:59.312,-0.1655,-1.0324, 0.0223, 0.0751, 0.0781,-0.0882,-2.1458, 1.4247,-2.5537
09-Sep-2020 10:30:59.322,-0.1929,-1.0458, 0.0125, 0.0865,-0.0145,-0.0366,-2.1527, 1.4250,-2.5460
09-Sep-2020 10:30:59.331,-0.2227,-1.0574, 0.0320, 0.0875,-0.0831,-0.0396,-2.1588, 1.4247,-2.5400
09-Sep-2020 10:30:59.342,-0.2399,-1.0803, 0.0561, 0.0790,-0.1231,-0.0826,-2.1659, 1.4245,-2.5336
09-Sep-2020 10:30:59.352,-0.2455,-1.1214, 0.0614, 0.0868,-0.1110,-0.1581,-2.1747, 1.4247,-2.5260
09-Sep-2020 10:30:59.362,-0.2297,-1.1716, 0.0600, 0.1220,-0.0194,-0.2122,-2.1866, 1.4254,-2.5150
09-Sep-2020 10:30:59.371,-0.2011,-1.2109, 0.0481, 0.1747, 0.0846,-0.2272,-2.2015, 1.4263,-2.5002
09-Sep-2020 10:30:59.381,-0.1750,-1.2295, 0.0178, 0.2404, 0.1458,-0.2122,-2.2195, 1.4270,-2.4812
09-Sep-2020 10:30:59.391,-0.1501,-1.2344, 0.0084, 0.2870, 0.1401,-0.1964,-2.2399, 1.4271,-2.4591
09-Sep-2020 10:30:59.401,-0.1410,-1.2445, 0.0291, 0.2808, 0.0925,-0.1709,-2.2620, 1.4268,-2.4354
09-Sep-2020 10:30:59.411,-0.1506,-1.2604, 0.0584, 0.2476, 0.0655,-0.1579,-2.2827, 1.4262,-2.4135
09-Sep-2020 10:30:59.421,-0.1596,-1.2798, 0.0791, 0.2053, 0.0920,-0.1557,-2.3016, 1.4257,-2.3937
09-Sep-2020 10:30:59.431,-0.1455,-1.3049, 0.0738, 0.1697, 0.1591,-0.1639,-2.3180, 1.4254,-2.3762
09-Sep-2020 10:30:59.441,-0.1091,-1.3298, 0.0464, 0.1519, 0.2416,-0.1542,-2.3323, 1.4253,-2.3601
09-Sep-2020 10:30:59.451,-0.0634,-1.3456, 0.0063, 0.1593, 0.3010,-0.1014,-2.3441, 1.4253,-2.3458
09-Sep-2020 10:30:59.461,-0.0136,-1.3370,-0.0305, 0.1692, 0.3192,-0.0027,-2.3533, 1.4248,-2.3336
09-Sep-2020 10:30:59.471, 0.0281,-1.3018,-0.0541, 0.1611, 0.2854, 0.1313,-2.3579, 1.4235,-2.3256
09-Sep-2020 10:30:59.481, 0.0446,-1.2379,-0.0551, 0.1245, 0.1941, 0.2719,-2.3563, 1.4214,-2.3245
09-Sep-2020 10:30:59.491, 0.0285,-1.1634,-0.0276, 0.0529, 0.0607, 0.3997,-2.3471, 1.4186,-2.3319
09-Sep-2020 10:30:59.501,-0.0147,-1.0934, 0.0200,-0.0401,-0.0503, 0.4886,-2.3310, 1.4153,-2.3475
09-Sep-2020 10:30:59.511,-0.0693,-1.0289, 0.0558,-0.1398,-0.0973, 0.5127,-2.3088, 1.4120,-2.3705
09-Sep-2020 10:30:59.520,-0.1154,-0.9725, 0.0699,-0.1982,-0.0642, 0.4738,-2.2825, 1.4090,-2.3981
09-Sep-2020 10:30:59.530,-0.1397,-0.9323, 0.0585,-0.2048, 0.0327, 0.3744,-2.2554, 1.4066,-2.4262
09-Sep-2020 10:30:59.540,-0.1390,-0.9092, 0.0326,-0.1620, 0.1500, 0.2403,-2.2318, 1.4049,-2.4498
09-Sep-2020 10:30:59.551,-0.1209,-0.8999, 0.0122,-0.0974, 0.2438, 0.1169,-2.2140, 1.4038,-2.4663
09-Sep-2020 10:30:59.560,-0.0989,-0.8974,-0.0036,-0.0437, 0.2977, 0.0181,-2.2027, 1.4034,-2.4753
09-Sep-2020 10:30:59.570,-0.0733,-0.8963,-0.0029,-0.0219, 0.3238,-0.0390,-2.1963, 1.4034,-2.4788
09-Sep-2020 10:30:59.580,-0.0459,-0.8910, 0.0087,-0.0248, 0.3202,-0.0607,-2.1932, 1.4038,-2.4787
09-Sep-2020 10:30:59.590,-0.0250,-0.8791, 0.0191,-0.0532, 0.2919,-0.0445,-2.1907, 1.4043,-2.4780
09-Sep-2020 10:30:59.600,-0.0031,-0.8570, 0.0165,-0.0782, 0.2319, 0.0030,-2.1867, 1.4049,-2.4792
09-Sep-2020 10:30:59.610, 0.0118,-0.8291, 0.0152,-0.0871, 0.1523, 0.0548,-2.1801, 1.4053,-2.4835
09-Sep-2020 10:30:59.620, 0.0164,-0.8008, 0.0346,-0.0927, 0.0484, 0.1107,-2.1724, 1.4053,-2.4898
09-Sep-2020 10:30:59.630,-0.0066,-0.7830, 0.0823,-0.1124,-0.0220, 0.1669,-2.1635, 1.4048,-2.4983
09-Sep-2020 10:30:59.640,-0.0517,-0.7628, 0.1423,-0.1516,-0.0126, 0.2183,-2.1525, 1.4040,-2.5097
09-Sep-2020 10:30:59.650,-0.0903,-0.7455, 0.1777,-0.1911, 0.0566, 0.2535,-2.1378, 1.4029,-2.5247
09-Sep-2020 10:30:59.660,-0.1085,-0.7348, 0.1630,-0.2042, 0.1373, 0.2742,-2.1199, 1.4017,-2.5423
09-Sep-2020 10:30:59.670,-0.1124,-0.7188, 0.1183,-0.1817, 0.1772, 0.2790,-2.1003, 1.4003,-2.5608
09-Sep-2020 10:30:59.680,-0.1154,-0.7106, 0.0714,-0.1408, 0.1498, 0.2499,-2.0815, 1.3988,-2.5781
09-Sep-2020 10:30:59.690,-0.1261,-0.7332, 0.0256,-0.0739, 0.0881, 0.1889,-2.0660, 1.3972,-2.5924
09-Sep-2020 10:30:59.700,-0.1289,-0.7593, 0.0086,-0.0013, 0.0016, 0.1218,-2.0565, 1.3958,-2.6011
09-Sep-2020 10:30:59.710,-0.1285,-0.7884, 0.0216, 0.0524,-0.0854, 0.0723,-2.0532, 1.3947,-2.6045
09-Sep-2020 10:30:59.720,-0.1260,-0.8270, 0.0412, 0.0979,-0.1542, 0.0198,-2.0548, 1.3937,-2.6038
09-Sep-2020 10:30:59.730,-0.1216,-0.8650, 0.0578, 0.1536,-0.1670,-0.0228,-2.0603, 1.3930,-2.5997
09-Sep-2020 10:30:59.740,-0.1174,-0.8980, 0.0627, 0.2243,-0.1516,-0.0644,-2.0700, 1.3924,-2.5915
09-Sep-2020 10:30:59.749,-0.1039,-0.9374, 0.0439, 0.3036,-0.1444,-0.1083,-2.0841, 1.3918,-2.5787
09-Sep-2020 10:30:59.759,-0.0831,-0.9743, 0.0260, 0.3773,-0.1577,-0.1432,-2.1029, 1.3912,-2.5611
09-Sep-2020 10:30:59.770,-0.0656,-1.0059, 0.0243, 0.4402,-0.1904,-0.1604,-2.1258, 1.3904,-2.5394
09-Sep-2020 10:30:59.780,-0.0571,-1.0333, 0.0271, 0.5120,-0.2330,-0.1566,-2.1526, 1.3893,-2.5142
09-Sep-2020 10:30:59.789,-0.0720,-1.0545, 0.0401, 0.5670,-0.2858,-0.1205,-2.1822, 1.3876,-2.4864
09-Sep-2020 10:30:59.800,-0.0992,-1.0692, 0.0653, 0.5834,-0.3421,-0.0775,-2.2131, 1.3852,-2.4579
09-Sep-2020 10:30:59.809,-0.1220,-1.0772, 0.1054, 0.5289,-0.4217,-0.0577,-2.2428, 1.3823,-2.4311
09-Sep-2020 10:30:59.819,-0.1326,-1.0899, 0.1511, 0.4231,-0.4824,-0.0520,-2.2699, 1.3793,-2.4078
09-Sep-2020 10:30:59.829,-0.1364,-1.1153, 0.1730, 0.3189,-0.5128,-0.0411,-2.2927, 1.3769,-2.3895
09-Sep-2020 10:30:59.839,-0.1464,-1.1474, 0.1913, 0.2354,-0.4781,-0.0247,-2.3110, 1.3750,-2.3760
09-Sep-2020 10:30:59.849,-0.1635,-1.1776, 0.1671, 0.2062,-0.3662,-0.0007,-2.3250, 1.3735,-2.3665
09-Sep-2020 10:30:59.859,-0.1575,-1.1846, 0.1017, 0.2404,-0.2677, 0.0383,-2.3361, 1.3720,-2.3589
09-Sep-2020 10:30:59.869,-0.1279,-1.1708, 0.0643, 0.2791,-0.2769, 0.0986,-2.3458, 1.3700,-2.3518
09-Sep-2020 10:30:59.879,-0.1366,-1.1538, 0.0746, 0.2511,-0.3722, 0.1446,-2.3546, 1.3673,-2.3457
09-Sep-2020 10:30:59.889,-0.1736,-1.1481, 0.1254, 0.1592,-0.4871, 0.1613,-2.3616, 1.3645,-2.3424
09-Sep-2020 10:30:59.899,-0.2134,-1.1474, 0.1950, 0.0198,-0.5406, 0.1637,-2.3661, 1.3622,-2.3427
09-Sep-2020 10:30:59.909,-0.2596,-1.1579, 0.2420,-0.1385,-0.5165, 0.1436,-2.3664, 1.3608,-2.3478
09-Sep-2020 10:30:59.919,-0.2894,-1.1762, 0.2546,-0.2894,-0.4219, 0.0751,-2.3622, 1.3607,-2.3574
09-Sep-2020 10:30:59.928,-0.3097,-1.1976, 0.2159,-0.3835,-0.2494,-0.0188,-2.3542, 1.3622,-2.3698
09-Sep-2020 10:30:59.939,-0.2841,-1.2095, 0.1155,-0.3871,-0.0479,-0.1311,-2.3445, 1.3649,-2.3822
09-Sep-2020 10:30:59.948,-0.2245,-1.2052,-0.0108,-0.2970, 0.0967,-0.2335,-2.3361, 1.3684,-2.3914
09-Sep-2020 10:30:59.958,-0.1652,-1.1891,-0.0999,-0.1364, 0.1443,-0.2947,-2.3325, 1.3720,-2.3941
09-Sep-2020 10:30:59.969,-0.1246,-1.1583,-0.1242, 0.0161, 0.1114,-0.3052,-2.3359, 1.3750,-2.3892
09-Sep-2020 10:30:59.978,-0.1006,-1.1085,-0.1051, 0.1060,-0.0089,-0.2799,-2.3457, 1.3770,-2.3781
09-Sep-2020 10:30:59.988,-0.0948,-1.0566,-0.0522, 0.1212,-0.1848,-0.2572,-2.3595, 1.3782,-2.3643
09-Sep-2020 10:30:59.998,-0.0943,-1.0191, 0.0215, 0.0978,-0.3307,-0.2038,-2.3748, 1.3790,-2.3505
09-Sep-2020 10:31:00.008,-0.1080,-0.9830, 0.1037, 0.0501,-0.3873,-0.1204,-2.3886, 1.3797,-2.3397
09-Sep-2020 10:31:00.019,-0.1461,-0.9441, 0.1888,-0.0413,-0.3610,-0.0452,-2.3985, 1.3801,-2.3335
09-Sep-2020 10:31:00.028,-0.1894,-0.9142, 0.2521,-0.1693,-0.2338,-0.0106,-2.4022, 1.3807,-2.3334
09-Sep-2020 10:31:00.038,-0.2111,-0.8978, 0.2633,-0.2902,-0.0639,-0.0063,-2.3989, 1.3819,-2.3391
09-Sep-2020 10:31:00.048,-0.2114,-0.8952, 0.2129,-0.3776, 0.1220,-0.0192,-2.3892, 1.3840,-2.3496
09-Sep-2020 10:31:00.058,-0.1845,-0.8863, 0.1304,-0.4200, 0.3008,-0.0348,-2.3748, 1.3868,-2.3630
09-Sep-2020 10:31:00.068,-0.1623,-0.8743, 0.0459,-0.4260, 0.3959,-0.0487,-2.3573, 1.3899,-2.3778
09-Sep-2020 10:31:00.078,-0.1555,-0.8678,-0.0395,-0.4184, 0.3753,-0.0721,-2.3386, 1.3931,-2.3930
09-Sep-2020 10:31:00.088,-0.1328,-0.8604,-0.1034,-0.3921, 0.2630,-0.1012,-2.3203, 1.3965,-2.4078
09-Sep-2020 10:31:00.098,-0.1150,-0.8508,-0.1465,-0.3416, 0.0960,-0.1193,-2.3051, 1.3998,-2.4206
09-Sep-2020 10:31:00.108,-0.1086,-0.8544,-0.1702,-0.2614,-0.0893,-0.1163,-2.2938, 1.4028,-2.4311
09-Sep-2020 10:31:00.118,-0.1072,-0.8582,-0.1460,-0.1536,-0.2474,-0.0905,-2.2876, 1.4053,-2.4383
09-Sep-2020 10:31:00.128,-0.1150,-0.8523,-0.0734,-0.0744,-0.3032,-0.0469,-2.2861, 1.4070,-2.4422
09-Sep-2020 10:31:00.138,-0.1517,-0.8452, 0.0045,-0.0515,-0.3054,-0.0293,-2.2874, 1.4078,-2.4439
09-Sep-2020 10:31:00.148,-0.1839,-0.8420, 0.0819,-0.0707,-0.2506,-0.0463,-2.2891, 1.4083,-2.4453
09-Sep-2020 10:31:00.158,-0.2035,-0.8406, 0.1329,-0.1025,-0.1220,-0.0844,-2.2901, 1.4090,-2.4467
09-Sep-2020 10:31:00.167,-0.2161,-0.8502, 0.1195,-0.1125, 0.0061,-0.1470,-2.2896, 1.4103,-2.4485
09-Sep-2020 10:31:00.177,-0.2044,-0.8678, 0.0660,-0.0870, 0.1005,-0.2115,-2.2902, 1.4120,-2.4479
09-Sep-2020 10:31:00.187,-0.1847,-0.8824, 0.0042,-0.0361, 0.1262,-0.2713,-2.2938, 1.4141,-2.4432
09-Sep-2020 10:31:00.197,-0.1651,-0.9056,-0.0405, 0.0291, 0.0937,-0.3282,-2.3022, 1.4163,-2.4335
09-Sep-2020 10:31:00.207,-0.1502,-0.9337,-0.0349, 0.0806, 0.0387,-0.3730,-2.3163, 1.4185,-2.4183
09-Sep-2020 10:31:00.217,-0.1448,-0.9599,-0.0143, 0.1094, 0.0343,-0.3967,-2.3361, 1.4205,-2.3978
09-Sep-2020 10:31:00.227,-0.1350,-0.9930, 0.0078, 0.1176, 0.0534,-0.4169,-2.3590, 1.4225,-2.3743
09-Sep-2020 10:31:00.237,-0.1241,-1.0151, 0.0411, 0.0902, 0.0736,-0.4212,-2.3836, 1.4245,-2.3489
09-Sep-2020 10:31:00.247,-0.1070,-1.0267, 0.0874, 0.0274, 0.1374,-0.3962,-2.4072, 1.4267,-2.3243
09-Sep-2020 10:31:00.257,-0.1055,-1.0385, 0.1153,-0.0530, 0.2160,-0.3271,-2.4271, 1.4290,-2.3028
09-Sep-2020 10:31:00.267,-0.0995,-1.0382, 0.0995,-0.1173, 0.2428,-0.2360,-2.4398, 1.4314,-2.2879
09-Sep-2020 10:31:00.277,-0.0825,-1.0269, 0.0674,-0.1743, 0.2292,-0.1337,-2.4446, 1.4338,-2.2806
09-Sep-2020 10:31:00.287,-0.0630,-1.0098, 0.0249,-0.2332, 0.1458,-0.0596,-2.4410, 1.4360,-2.2819
09-Sep-2020 10:31:00.297,-0.0653,-0.9966, 0.0121,-0.2828, 0.0248,-0.0160,-2.4317, 1.4381,-2.2899
09-Sep-2020 10:31:00.307,-0.0989,-1.0002, 0.0404,-0.3063,-0.0220, 0.0079,-2.4183, 1.4402,-2.3031
09-Sep-2020 10:31:00.317,-0.1348,-1.0193, 0.0884,-0.3110, 0.1028, 0.0331,-2.4021, 1.4423,-2.3196
09-Sep-2020 10:31:00.327,-0.1368,-1.0375, 0.0992,-0.3005, 0.2905, 0.0604,-2.3820, 1.4443,-2.3388
09-Sep-2020 10:31:00.337,-0.1146,-1.0170, 0.0578,-0.2892, 0.3689, 0.0660,-2.3591, 1.4460,-2.3590
09-Sep-2020 10:31:00.347,-0.0893,-0.9924, 0.0258,-0.3131, 0.2082, 0.0659,-2.3352, 1.4475,-2.3795
09-Sep-2020 10:31:00.357,-0.0919,-1.0028, 0.0292,-0.4069, 0.0674, 0.0527,-2.3106, 1.4491,-2.4022
09-Sep-2020 10:31:00.366,-0.1245,-1.0470, 0.0353,-0.4761, 0.0443, 0.0153,-2.2815, 1.4514,-2.4307
09-Sep-2020 10:31:00.376,-0.1588,-1.0976, 0.0791,-0.5213, 0.1248,-0.0252,-2.2494, 1.4542,-2.4625
09-Sep-2020 10:31:00.387,-0.1749,-1.1602, 0.1215,-0.5759, 0.3441,-0.0684,-2.2138, 1.4575,-2.4970
09-Sep-2020 10:31:00.396,-0.1629,-1.2106, 0.1144,-0.6666, 0.5786,-0.1195,-2.1719, 1.4613,-2.5358
09-Sep-2020 10:31:00.406,-0.1336,-1.2185, 0.0894,-0.8236, 0.7966,-0.2072,-2.1195, 1.4659,-2.5827
09-Sep-2020 10:31:00.416,-0.1036,-1.2367,-0.0450,-1.0378, 0.7340,-0.2925,-2.0517, 1.4717,-2.6431
09-Sep-2020 10:31:00.426,-0.0055,-1.2486,-0.1418,-1.2588, 0.5533,-0.3226,-1.9594, 1.4786,-2.7286
09-Sep-2020 10:31:00.437, 0.0603,-1.2172,-0.1577,-1.4722, 0.4804,-0.2495,-1.8317, 1.4855,-2.8512
09-Sep-2020 10:31:00.446, 0.0773,-1.1444,-0.1574,-1.6476, 0.4794,-0.1110,-1.6577, 1.4904,-3.0210
09-Sep-2020 10:31:00.456, 0.0980,-1.0717,-0.1566,-1.7938, 0.5023, 0.0351,-1.4487, 1.4911, 3.0573
09-Sep-2020 10:31:00.466, 0.1234,-1.0078,-0.1890,-1.8903, 0.4680, 0.1508,-1.2337, 1.4867, 2.8466
09-Sep-2020 10:31:00.476, 0.1054,-0.9811,-0.2539,-1.9284, 0.2336, 0.2431,-1.0450, 1.4774, 2.6616
09-Sep-2020 10:31:00.486, 0.0557,-0.9630,-0.2921,-1.8867,-0.0419, 0.3095,-0.8984, 1.4645, 2.5167
09-Sep-2020 10:31:00.496,-0.0116,-0.9501,-0.2954,-1.7593,-0.1205, 0.3405,-0.7943, 1.4497, 2.4116
09-Sep-2020 10:31:00.506,-0.0853,-0.9409,-0.2577,-1.5484, 0.2050, 0.3399,-0.7220, 1.4347, 2.3378
09-Sep-2020 10:31:00.516,-0.1504,-0.9324,-0.3018,-1.2943, 0.5677, 0.2591,-0.6698, 1.4208, 2.2871
09-Sep-2020 10:31:00.526,-0.1734,-0.9324,-0.3778,-1.0543, 0.6070, 0.0981,-0.6279, 1.4089, 2.2501
09-Sep-2020 10:31:00.535,-0.1623,-0.9127,-0.4130,-0.8581, 0.6092,-0.1397,-0.5910, 1.3997, 2.2188
09-Sep-2020 10:31:00.546,-0.1458,-0.8882,-0.4951,-0.6369, 0.5877,-0.3589,-0.5526, 1.3933, 2.1860
09-Sep-2020 10:31:00.556,-0.0639,-0.8833,-0.5573,-0.3691, 0.5545,-0.4631,-0.5130, 1.3896, 2.1516
09-Sep-2020 10:31:00.566, 0.0084,-0.8833,-0.6182,-0.0474, 0.5195,-0.4502,-0.4765, 1.3885, 2.1202
09-Sep-2020 10:31:00.576, 0.0615,-0.8869,-0.6389, 0.3109, 0.2877,-0.3325,-0.4493, 1.3901, 2.0977
09-Sep-2020 10:31:00.586, 0.1100,-0.9095,-0.5387, 0.6066, 0.0760,-0.1373,-0.4378, 1.3942, 2.0889
09-Sep-2020 10:31:00.595, 0.0955,-0.9314,-0.4176, 0.7784,-0.0844, 0.0781,-0.4451, 1.4002, 2.0971
09-Sep-2020 10:31:00.605, 0.0358,-0.9256,-0.3103, 0.8323,-0.1854, 0.2343,-0.4700, 1.4066, 2.1216
09-Sep-2020 10:31:00.615,-0.0436,-0.9193,-0.2245, 0.8038,-0.1925, 0.3235,-0.5086, 1.4128, 2.1588
09-Sep-2020 10:31:00.625,-0.1212,-0.8972,-0.1506, 0.7471,-0.0572, 0.3500,-0.5542, 1.4181, 2.2032
09-Sep-2020 10:31:00.635,-0.1611,-0.8661,-0.1382, 0.6789, 0.0819, 0.3114,-0.6011, 1.4224, 2.2500
09-Sep-2020 10:31:00.645,-0.1965,-0.8509,-0.1919, 0.6265, 0.1343, 0.2477,-0.6441, 1.4260, 2.2943
09-Sep-2020 10:31:00.655,-0.2009,-0.8447,-0.2109, 0.6170, 0.2236, 0.1722,-0.6835, 1.4294, 2.3355
09-Sep-2020 10:31:00.666,-0.1613,-0.8480,-0.1980, 0.6082, 0.2732, 0.1052,-0.7194, 1.4330, 2.3739
09-Sep-2020 10:31:00.675,-0.1183,-0.8614,-0.1694, 0.5767, 0.2524, 0.0557,-0.7527, 1.4367, 2.4102
09-Sep-2020 10:31:00.685,-0.0760,-0.8416,-0.1620, 0.4899, 0.1413, 0.0060,-0.7831, 1.4403, 2.4434
09-Sep-2020 10:31:00.695,-0.0550,-0.8260,-0.1960, 0.3669,-0.1070,-0.0548,-0.8094, 1.4437, 2.4712
09-Sep-2020 10:31:00.705,-0.0877,-0.8522,-0.2396, 0.2605,-0.3967,-0.1038,-0.8293, 1.4465, 2.4902
09-Sep-2020 10:31:00.715,-0.1131,-0.8951,-0.2536, 0.2246,-0.5517,-0.1248,-0.8441, 1.4490, 2.5012
09-Sep-2020 10:31:00.725,-0.1402,-0.9371,-0.2329, 0.2292,-0.5663,-0.1372,-0.8567, 1.4513, 2.5084
09-Sep-2020 10:31:00.735,-0.1743,-0.9683,-0.1506, 0.2373,-0.3721,-0.1715,-0.8698, 1.4538, 2.5161
09-Sep-2020 10:31:00.745,-0.1776,-1.0034,-0.0621, 0.2161,-0.0610,-0.2174,-0.8801, 1.4566, 2.5228
09-Sep-2020 10:31:00.755,-0.1558,-1.0335,-0.0435, 0.1834, 0.2456,-0.2505,-0.8837, 1.4596, 2.5259
09-Sep-2020 10:31:00.764,-0.1366,-1.0276,-0.1060, 0.1431, 0.3909,-0.2523,-0.8797, 1.4625, 2.5242
09-Sep-2020 10:31:00.774,-0.1181,-1.0140,-0.1638, 0.1206, 0.4679,-0.2400,-0.8720, 1.4654, 2.5203
09-Sep-2020 10:31:00.784,-0.1102,-1.0337,-0.1901, 0.1040, 0.5011,-0.2754,-0.8619, 1.4680, 2.5148
09-Sep-2020 10:31:00.794,-0.0717,-1.0069,-0.1609, 0.0481, 0.5063,-0.3071,-0.8476, 1.4706, 2.5054
