Timestamp,accelX,accelY,accelZ,gyroX(rad/s),gyroY(rad/s),gyroZ(rad/s),Roll(rads),Pitch(rads),Yaw(rads)
09-Sep-2020 11:20:29.745,-0.3668,-0.1661,-0.9630, 0.2322,-0.3175, 0.3958,-0.3898, 0.1279,-0.4538
09-Sep-2020 11:20:29.749,-0.3673,-0.1641,-0.9228, 0.2748,-0.3254, 0.3974,-0.3898, 0.1279,-0.4538
09-Sep-2020 11:20:29.759,-0.3870,-0.1581,-0.8731, 0.2758,-0.2877, 0.3672,-0.3936, 0.1289,-0.4490
09-Sep-2020 11:20:29.769,-0.3914,-0.1667,-0.8466, 0.2437,-0.2301, 0.3569,-0.3971, 0.1300,-0.4445
09-Sep-2020 11:20:29.779,-0.3882,-0.1762,-0.8441, 0.2262,-0.3072, 0.3809,-0.4001, 0.1308,-0.4401
09-Sep-2020 11:20:29.789,-0.4146,-0.1757,-0.8372, 0.2010,-0.4353, 0.3679,-0.4038, 0.1314,-0.4356
09-Sep-2020 11:20:29.799,-0.4652,-0.1850,-0.8563, 0.1867,-0.6263, 0.2706,-0.4087, 0.1319,-0.4314
09-Sep-2020 11:20:29.809,-0.5288,-0.2006,-0.8759, 0.2103,-0.7774, 0.0771,-0.4154, 0.1325,-0.4281
09-Sep-2020 11:20:29.819,-0.5659,-0.2422,-0.8915, 0.2896,-0.8164,-0.1085,-0.4233, 0.1341,-0.4265
09-Sep-2020 11:20:29.828,-0.6020,-0.2544,-0.8788, 0.3861,-0.8018,-0.2699,-0.4314, 0.1372,-0.4262
09-Sep-2020 11:20:29.838,-0.6200,-0.2720,-0.8458, 0.4403,-0.8465,-0.3997,-0.4394, 0.1418,-0.4269
09-Sep-2020 11:20:29.849,-0.6427,-0.2683,-0.8084, 0.3639,-1.0278,-0.5159,-0.4476, 0.1474,-0.4286
09-Sep-2020 11:20:29.858,-0.6989,-0.2339,-0.7676, 0.0974,-1.3214,-0.6427,-0.4575, 0.1528,-0.4316
09-Sep-2020 11:20:29.868,-0.7908,-0.1629,-0.7280,-0.3578,-1.5389,-0.8052,-0.4698, 0.1564,-0.4370
09-Sep-2020 11:20:29.878,-0.8550,-0.1327,-0.7426,-0.8695,-1.5092,-0.9947,-0.4836, 0.1569,-0.4458
09-Sep-2020 11:20:29.888,-0.8375,-0.1016,-0.7889,-1.3399,-1.2549,-1.1514,-0.4966, 0.1540,-0.4587
09-Sep-2020 11:20:29.899,-0.7576,-0.0530,-0.8503,-1.6856,-0.8347,-1.2298,-0.5065, 0.1478,-0.4751
09-Sep-2020 11:20:29.908,-0.6782, 0.0439,-0.9256,-1.8989,-0.5177,-1.2717,-0.5122, 0.1392,-0.4941
09-Sep-2020 11:20:29.918,-0.5784, 0.0906,-0.9760,-1.9132,-0.2928,-1.2164,-0.5147, 0.1290,-0.5144
09-Sep-2020 11:20:29.928,-0.4826, 0.1062,-0.9973,-1.7319,-0.0848,-1.0426,-0.5152, 0.1185,-0.5342
09-Sep-2020 11:20:29.938,-0.4170, 0.1375,-0.9938,-1.4533, 0.1283,-0.8216,-0.5140, 0.1086,-0.5517
09-Sep-2020 11:20:29.948,-0.3704, 0.1350,-0.9861,-1.1749, 0.3546,-0.5783,-0.5113, 0.1000,-0.5659
09-Sep-2020 11:20:29.958,-0.2886, 0.0560,-0.9750,-0.9544, 0.6376,-0.3047,-0.5067, 0.0926,-0.5766
09-Sep-2020 11:20:29.968,-0.2419,-0.0143,-0.9711,-0.8750, 0.8322,-0.0425,-0.4997, 0.0856,-0.5838
09-Sep-2020 11:20:29.978,-0.2748,-0.0229,-0.9384,-1.0026, 0.8411, 0.1363,-0.4912, 0.0780,-0.5884
09-Sep-2020 11:20:29.988,-0.3486,-0.0089,-0.9147,-1.2825, 0.7014, 0.1854,-0.4827, 0.0685,-0.5919
09-Sep-2020 11:20:29.998,-0.4470,-0.0062,-0.9105,-1.6091, 0.5951, 0.1041,-0.4755, 0.0564,-0.5962
09-Sep-2020 11:20:30.008,-0.5327,-0.0028,-0.9237,-1.9031, 0.7006,-0.0687,-0.4691, 0.0417,-0.6025
09-Sep-2020 11:20:30.018,-0.5813,-0.0051,-0.9419,-2.1539, 1.0244,-0.2737,-0.4617, 0.0251,-0.6116
09-Sep-2020 11:20:30.027,-0.5880, 0.0186,-0.9626,-2.3812, 1.3288,-0.4766,-0.4513, 0.0071,-0.6234
09-Sep-2020 11:20:30.037,-0.5463, 0.0510,-0.9979,-2.5503, 1.5352,-0.6463,-0.4382,-0.0123,-0.6378
09-Sep-2020 11:20:30.047,-0.4955, 0.0937,-1.0846,-2.5719, 1.4710,-0.7328,-0.4234,-0.0326,-0.6541
09-Sep-2020 11:20:30.058,-0.4349, 0.1839,-1.1927,-2.3307, 0.8960,-0.6291,-0.4099,-0.0529,-0.6709
09-Sep-2020 11:20:30.067,-0.4231, 0.2530,-1.1027,-2.0012, 0.5079,-0.5283,-0.4017,-0.0717,-0.6857
09-Sep-2020 11:20:30.077,-0.5090, 0.2680,-0.9970,-1.4559, 0.9601,-0.7462,-0.3970,-0.0878,-0.6984
09-Sep-2020 11:20:30.087,-0.5760, 0.2538,-1.1774,-0.7695, 1.0151,-1.2563,-0.3890,-0.0982,-0.7109
09-Sep-2020 11:20:30.097,-0.5123, 0.1792,-1.2098,-0.2262, 0.3930,-1.6668,-0.3808,-0.1007,-0.7254
09-Sep-2020 11:20:30.108,-0.3741, 0.1313,-0.9678,-0.0777,-0.0118,-1.6435,-0.3784,-0.0970,-0.7414
09-Sep-2020 11:20:30.117,-0.2867, 0.1555,-0.7659,-0.3475, 0.0531,-1.3539,-0.3796,-0.0920,-0.7568
09-Sep-2020 11:20:30.127,-0.2764, 0.1882,-0.7569,-0.5946, 0.1765,-1.1796,-0.3803,-0.0901,-0.7707
09-Sep-2020 11:20:30.137,-0.2961, 0.1980,-0.7985,-0.6584, 0.2708,-1.0916,-0.3798,-0.0911,-0.7838
09-Sep-2020 11:20:30.147,-0.2742, 0.1785,-0.8371,-0.4831, 0.4259,-0.9323,-0.3782,-0.0931,-0.7961
09-Sep-2020 11:20:30.157,-0.2399, 0.1555,-0.8790,-0.1972, 0.5118,-0.6547,-0.3750,-0.0941,-0.8064
09-Sep-2020 11:20:30.167,-0.2085, 0.1214,-0.8998, 0.0794, 0.4307,-0.4319,-0.3706,-0.0935,-0.8132
09-Sep-2020 11:20:30.177,-0.1906, 0.0836,-0.8373, 0.2248, 0.4113,-0.1556,-0.3667,-0.0914,-0.8168
09-Sep-2020 11:20:30.187,-0.2099, 0.0729,-0.7895, 0.1522, 0.5012, 0.0888,-0.3625,-0.0889,-0.8174
09-Sep-2020 11:20:30.197,-0.2520, 0.0671,-0.8136, 0.0051, 0.4821, 0.1684,-0.3575,-0.0877,-0.8161
09-Sep-2020 11:20:30.207,-0.2769, 0.0582,-0.8457,-0.0380, 0.4086, 0.1393,-0.3526,-0.0882,-0.8145
09-Sep-2020 11:20:30.217,-0.3583, 0.0854,-0.8205,-0.0116, 0.3391,-0.0037,-0.3485,-0.0889,-0.8133
09-Sep-2020 11:20:30.227,-0.3896, 0.0847,-0.8028,-0.0304, 0.3010,-0.2165,-0.3451,-0.0890,-0.8133
09-Sep-2020 11:20:30.237,-0.3751, 0.0288,-0.8286, 0.0072, 0.1771,-0.3438,-0.3423,-0.0886,-0.8153
09-Sep-2020 11:20:30.247,-0.3871, 0.0521,-0.8335, 0.1074, 0.0785,-0.3923,-0.3409,-0.0873,-0.8184
09-Sep-2020 11:20:30.256,-0.3550, 0.0717,-0.8179, 0.1502, 0.0849,-0.3461,-0.3403,-0.0851,-0.8216
09-Sep-2020 11:20:30.267,-0.2923, 0.0627,-0.7818, 0.0951, 0.1634,-0.2011,-0.3397,-0.0826,-0.8242
09-Sep-2020 11:20:30.276,-0.2070, 0.0532,-0.7437,-0.1296, 0.3460, 0.0720,-0.3381,-0.0811,-0.8257
09-Sep-2020 11:20:30.286,-0.1824, 0.0493,-0.7663,-0.4508, 0.4542, 0.3901,-0.3347,-0.0826,-0.8254
09-Sep-2020 11:20:30.296,-0.2062, 0.0643,-0.8567,-0.6746, 0.4617, 0.6413,-0.3301,-0.0881,-0.8231
09-Sep-2020 11:20:30.306,-0.2532, 0.1013,-0.9623,-0.7130, 0.3582, 0.7104,-0.3252,-0.0963,-0.8192
09-Sep-2020 11:20:30.316,-0.2708, 0.1120,-1.0080,-0.7296, 0.2808, 0.8006,-0.3212,-0.1053,-0.8146
09-Sep-2020 11:20:30.326,-0.2805, 0.1107,-1.0438,-0.7606, 0.3059, 0.9085,-0.3177,-0.1147,-0.8092
09-Sep-2020 11:20:30.336,-0.3124, 0.1162,-1.0743,-0.7488, 0.3432, 1.0102,-0.3140,-0.1247,-0.8028
09-Sep-2020 11:20:30.346,-0.3670, 0.1447,-1.0856,-0.6595, 0.4771, 1.0464,-0.3095,-0.1348,-0.7954
09-Sep-2020 11:20:30.356,-0.3827, 0.1389,-1.1076,-0.5583, 0.6208, 1.0248,-0.3037,-0.1441,-0.7874
09-Sep-2020 11:20:30.366,-0.3600, 0.1499,-1.1597,-0.4641, 0.7090, 1.0522,-0.2963,-0.1525,-0.7790
09-Sep-2020 11:20:30.376,-0.3679, 0.1872,-1.2186,-0.3627, 0.6647, 1.0485,-0.2880,-0.1599,-0.7702
09-Sep-2020 11:20:30.386,-0.3132, 0.2477,-1.2864,-0.2711, 0.6682, 0.9735,-0.2798,-0.1662,-0.7610
09-Sep-2020 11:20:30.396,-0.3341, 0.2795,-1.3394,-0.1542, 0.6389, 0.9299,-0.2717,-0.1714,-0.7522
09-Sep-2020 11:20:30.406,-0.3114, 0.3008,-1.3365,-0.1349, 0.6911, 0.9613,-0.2637,-0.1754,-0.7434
09-Sep-2020 11:20:30.416,-0.3533, 0.3498,-1.2891,-0.2733, 0.6213, 0.9860,-0.2553,-0.1793,-0.7343
09-Sep-2020 11:20:30.426,-0.4913, 0.4361,-1.2501,-0.4756, 0.3509, 0.8554,-0.2477,-0.1844,-0.7254
09-Sep-2020 11:20:30.436,-0.4588, 0.4255,-1.2549,-0.6222, 0.1811, 0.6220,-0.2427,-0.1909,-0.7181
09-Sep-2020 11:20:30.446,-0.3067, 0.3804,-1.2404,-0.7456, 0.2087, 0.4820,-0.2399,-0.1984,-0.7134
09-Sep-2020 11:20:30.456,-0.2039, 0.4058,-1.1735,-0.7778, 0.3743, 0.4396,-0.2373,-0.2067,-0.7103
09-Sep-2020 11:20:30.465, 0.0237, 0.4333,-1.1971,-0.7094, 1.0070, 0.4904,-0.2324,-0.2152,-0.7076
09-Sep-2020 11:20:30.476,-0.0518, 0.5904,-1.4099,-0.6925, 0.7325, 0.5506,-0.2224,-0.2232,-0.7043
09-Sep-2020 11:20:30.485,-0.2312, 0.7189,-1.2939,-0.5912, 0.2641, 0.4138,-0.2143,-0.2310,-0.7004
09-Sep-2020 11:20:30.495,-0.2032, 0.5900,-1.1614,-0.5010,-0.0268, 0.2621,-0.2109,-0.2377,-0.6974
09-Sep-2020 11:20:30.505,-0.2069, 0.4139,-1.0583,-0.3554,-0.1768, 0.1513,-0.2107,-0.2430,-0.6958
09-Sep-2020 11:20:30.515,-0.2618, 0.2431,-0.8772,-0.2249,-0.1492, 0.0450,-0.2121,-0.2468,-0.6950
09-Sep-2020 11:20:30.525,-0.2080, 0.1420,-0.7656,-0.2131,-0.1740, 0.0030,-0.2137,-0.2491,-0.6949
09-Sep-2020 11:20:30.535,-0.1254, 0.1098,-0.6392,-0.3022,-0.1393, 0.1034,-0.2154,-0.2513,-0.6952
09-Sep-2020 11:20:30.545, 0.0885, 0.0391,-0.5938,-0.3723, 0.0244, 0.4753,-0.2166,-0.2545,-0.6945
09-Sep-2020 11:20:30.555, 0.0669, 0.0988,-0.5456,-0.4468, 0.3335, 0.8642,-0.2152,-0.2591,-0.6905
09-Sep-2020 11:20:30.565,-0.0939, 0.2671,-0.4872,-0.5724, 0.5767, 1.0514,-0.2100,-0.2652,-0.6828
09-Sep-2020 11:20:30.575,-0.2298, 0.3804,-0.4416,-0.7953, 0.7692, 1.0509,-0.2018,-0.2730,-0.6734
09-Sep-2020 11:20:30.585,-0.3178, 0.4278,-0.4820,-1.0467, 0.7811, 0.8903,-0.1918,-0.2828,-0.6644
09-Sep-2020 11:20:30.595,-0.3140, 0.4093,-0.5334,-1.2874, 0.5776, 0.7118,-0.1821,-0.2946,-0.6572
09-Sep-2020 11:20:30.605,-0.2841, 0.4044,-0.5354,-1.5386, 0.2854, 0.5834,-0.1750,-0.3085,-0.6522
09-Sep-2020 11:20:30.615,-0.3296, 0.4500,-0.5117,-1.8387,-0.0326, 0.4764,-0.1712,-0.3246,-0.6489
09-Sep-2020 11:20:30.625,-0.3971, 0.5131,-0.5283,-2.0870,-0.2637, 0.2861,-0.1709,-0.3434,-0.6472
09-Sep-2020 11:20:30.635,-0.3914, 0.4946,-0.5381,-2.2278,-0.3626, 0.1279,-0.1737,-0.3642,-0.6479
09-Sep-2020 11:20:30.645,-0.3023, 0.4633,-0.5396,-2.2913,-0.1639, 0.0369,-0.1780,-0.3862,-0.6505
09-Sep-2020 11:20:30.655,-0.1463, 0.4058,-0.5900,-2.2819, 0.0661, 0.0082,-0.1812,-0.4087,-0.6545
09-Sep-2020 11:20:30.665, 0.0033, 0.3397,-0.6610,-2.3008, 0.1054, 0.1340,-0.1825,-0.4311,-0.6587
09-Sep-2020 11:20:30.675, 0.0724, 0.3492,-0.8551,-2.1777,-0.0192, 0.3063,-0.1828,-0.4537,-0.6617
09-Sep-2020 11:20:30.684, 0.0476, 0.3439,-0.9227,-1.9471,-0.0356, 0.4366,-0.1833,-0.4755,-0.6627
09-Sep-2020 11:20:30.695,-0.0276, 0.3262,-0.8530,-1.7118, 0.0647, 0.4834,-0.1832,-0.4954,-0.6618
09-Sep-2020 11:20:30.704,-0.1121, 0.3363,-0.8169,-1.5098,-0.0470, 0.4946,-0.1818,-0.5130,-0.6599
09-Sep-2020 11:20:30.714,-0.1987, 0.4103,-0.7974,-1.3257,-0.0481, 0.4486,-0.1809,-0.5286,-0.6574
09-Sep-2020 11:20:30.724,-0.2609, 0.4579,-0.8328,-1.1767,-0.1226, 0.3058,-0.1803,-0.5424,-0.6551
09-Sep-2020 11:20:30.735,-0.3182, 0.5026,-0.8756,-1.0284,-0.4335, 0.0999,-0.1811,-0.5545,-0.6540
09-Sep-2020 11:20:30.744,-0.3868, 0.5671,-0.8416,-0.8634,-0.6967,-0.2215,-0.1860,-0.5647,-0.6550
09-Sep-2020 11:20:30.754,-0.4223, 0.6281,-0.8123,-0.7414,-0.9626,-0.5454,-0.1953,-0.5727,-0.6594
09-Sep-2020 11:20:30.764,-0.4539, 0.7382,-0.7892,-0.6992,-1.2144,-0.8611,-0.2092,-0.5788,-0.6675
09-Sep-2020 11:20:30.774,-0.4390, 0.8157,-0.7889,-0.7158,-1.4648,-1.1409,-0.2278,-0.5838,-0.6792
09-Sep-2020 11:20:30.784,-0.4152, 0.8186,-0.8125,-0.7384,-1.6680,-1.3647,-0.2507,-0.5880,-0.6943
09-Sep-2020 11:20:30.794,-0.4217, 0.7797,-0.8257,-0.7343,-1.8197,-1.5514,-0.2773,-0.5916,-0.7123
09-Sep-2020 11:20:30.804,-0.4163, 0.7178,-0.8136,-0.7408,-1.8317,-1.6694,-0.3066,-0.5941,-0.7325
09-Sep-2020 11:20:30.814,-0.3920, 0.6637,-0.8180,-0.7178,-1.7840,-1.7219,-0.3369,-0.5958,-0.7542
09-Sep-2020 11:20:30.824,-0.3730, 0.6131,-0.8070,-0.6635,-1.7062,-1.7024,-0.3672,-0.5966,-0.7765
09-Sep-2020 11:20:30.834,-0.3825, 0.5567,-0.7738,-0.6505,-1.5650,-1.6168,-0.3964,-0.5965,-0.7983
09-Sep-2020 11:20:30.844,-0.4458, 0.5640,-0.7694,-0.6301,-1.4583,-1.5739,-0.4237,-0.5960,-0.8192
09-Sep-2020 11:20:30.854,-0.5336, 0.6112,-0.7762,-0.6328,-1.4580,-1.6150,-0.4497,-0.5951,-0.8395
09-Sep-2020 11:20:30.864,-0.6085, 0.7077,-0.7842,-0.6191,-1.5004,-1.7567,-0.4759,-0.5935,-0.8602
09-Sep-2020 11:20:30.873,-0.6234, 0.7018,-0.7830,-0.5996,-1.4533,-1.9185,-0.5031,-0.5907,-0.8822
09-Sep-2020 11:20:30.883,-0.5968, 0.6255,-0.8020,-0.5193,-1.3680,-2.0292,-0.5305,-0.5864,-0.9056
09-Sep-2020 11:20:30.893,-0.5227, 0.6017,-0.7814,-0.4464,-1.2320,-2.0501,-0.5572,-0.5805,-0.9293
09-Sep-2020 11:20:30.903,-0.4410, 0.5669,-0.7680,-0.3889,-1.0648,-1.9746,-0.5821,-0.5733,-0.9525
09-Sep-2020 11:20:30.913,-0.3736, 0.5386,-0.7491,-0.3511,-0.9069,-1.8237,-0.6044,-0.5655,-0.9743
09-Sep-2020 11:20:30.923,-0.3592, 0.5417,-0.7529,-0.3079,-0.8171,-1.6160,-0.6240,-0.5579,-0.9941
09-Sep-2020 11:20:30.933,-0.4166, 0.5711,-0.7215,-0.3104,-0.7392,-1.4479,-0.6413,-0.5509,-1.0114
09-Sep-2020 11:20:30.944,-0.4985, 0.5679,-0.7050,-0.3486,-0.6395,-1.3832,-0.6568,-0.5446,-1.0270
09-Sep-2020 11:20:30.953,-0.5495, 0.5990,-0.7639,-0.4171,-0.6415,-1.4268,-0.6710,-0.5389,-1.0422
09-Sep-2020 11:20:30.963,-0.6160, 0.5459,-0.7951,-0.4854,-0.8114,-1.5326,-0.6856,-0.5332,-1.0581
09-Sep-2020 11:20:30.973,-0.5959, 0.5237,-0.8207,-0.5471,-0.9428,-1.6472,-0.7023,-0.5272,-1.0752
09-Sep-2020 11:20:30.983,-0.5815, 0.4949,-0.8295,-0.5970,-1.0140,-1.6774,-0.7209,-0.5206,-1.0935
09-Sep-2020 11:20:30.993,-0.5878, 0.5002,-0.8481,-0.5383,-0.9750,-1.6538,-0.7402,-0.5139,-1.1121
09-Sep-2020 11:20:31.003,-0.6388, 0.4224,-0.8492,-0.3544,-0.8250,-1.5723,-0.7584,-0.5066,-1.1299
09-Sep-2020 11:20:31.013,-0.7029, 0.4282,-0.8140,-0.1522,-0.7560,-1.4631,-0.7742,-0.4983,-1.1455
09-Sep-2020 11:20:31.023,-0.8094, 0.4856,-0.7475, 0.0187,-0.5466,-1.4842,-0.7878,-0.4891,-1.1585
09-Sep-2020 11:20:31.033,-0.8436, 0.4444,-0.7162, 0.1248,-0.3928,-1.4213,-0.7985,-0.4787,-1.1698
09-Sep-2020 11:20:31.043,-0.8453, 0.4180,-0.6753, 0.2305,-0.3276,-1.4460,-0.8070,-0.4676,-1.1799
09-Sep-2020 11:20:31.053,-0.7782, 0.3948,-0.5752, 0.2301,-0.0592,-1.3650,-0.8142,-0.4558,-1.1890
09-Sep-2020 11:20:31.063,-0.7369, 0.3693,-0.6131, 0.2546,-0.0903,-1.3481,-0.8187,-0.4443,-1.1974
09-Sep-2020 11:20:31.073,-0.7145, 0.3414,-0.5572, 0.2253,-0.2560,-1.3133,-0.8231,-0.4328,-1.2054
09-Sep-2020 11:20:31.083,-0.7159, 0.3464,-0.4748, 0.0963,-0.2645,-1.2815,-0.8288,-0.4218,-1.2133
09-Sep-2020 11:20:31.093,-0.7067, 0.3617,-0.4528,-0.0605,-0.2660,-1.3279,-0.8349,-0.4117,-1.2219
09-Sep-2020 11:20:31.103,-0.6590, 0.3696,-0.4355,-0.2880,-0.2267,-1.3255,-0.8415,-0.4024,-1.2320
09-Sep-2020 11:20:31.113,-0.6401, 0.3533,-0.4637,-0.4776,-0.1007,-1.3233,-0.8482,-0.3944,-1.2437
09-Sep-2020 11:20:31.123,-0.6328, 0.3187,-0.5401,-0.6125,-0.1082,-1.2796,-0.8544,-0.3877,-1.2568
09-Sep-2020 11:20:31.133,-0.6698, 0.3256,-0.6062,-0.6436,-0.2246,-1.2326,-0.8607,-0.3821,-1.2707
09-Sep-2020 11:20:31.142,-0.7170, 0.3460,-0.6236,-0.6273,-0.3452,-1.1943,-0.8680,-0.3769,-1.2844
09-Sep-2020 11:20:31.153,-0.7071, 0.3560,-0.6311,-0.5890,-0.3641,-1.1139,-0.8762,-0.3719,-1.2976
09-Sep-2020 11:20:31.162,-0.6931, 0.3215,-0.6549,-0.4846,-0.4133,-0.9875,-0.8843,-0.3671,-1.3099
09-Sep-2020 11:20:31.172,-0.6916, 0.2680,-0.6419,-0.3298,-0.3943,-0.8344,-0.8921,-0.3625,-1.3204
09-Sep-2020 11:20:31.182,-0.7004, 0.2229,-0.5862,-0.1509,-0.2534,-0.6779,-0.8989,-0.3582,-1.3286
09-Sep-2020 11:20:31.192,-0.7221, 0.2312,-0.5213,-0.0341,-0.0618,-0.5596,-0.9034,-0.3538,-1.3343
09-Sep-2020 11:20:31.203,-0.7569, 0.2901,-0.4864,-0.0039, 0.0691,-0.4559,-0.9053,-0.3498,-1.3382
09-Sep-2020 11:20:31.212,-0.8419, 0.2975,-0.4713, 0.0193,-0.1895,-0.5531,-0.9061,-0.3461,-1.3413
09-Sep-2020 11:20:31.222,-0.8888, 0.3079,-0.3441,-0.1092,-0.1761,-0.6636,-0.9088,-0.3418,-1.3447
09-Sep-2020 11:20:31.232,-0.9328, 0.3270,-0.3477,-0.2556,-0.3015,-0.8626,-0.9124,-0.3373,-1.3498
09-Sep-2020 11:20:31.242,-0.8860, 0.3466,-0.3199,-0.4621,-0.4486,-1.0589,-0.9180,-0.3322,-1.3574
09-Sep-2020 11:20:31.252,-0.7983, 0.3250,-0.3487,-0.7109,-0.4825,-1.2238,-0.9257,-0.3266,-1.3680
09-Sep-2020 11:20:31.262,-0.7503, 0.2467,-0.4254,-0.8267,-0.6973,-1.3392,-0.9350,-0.3211,-1.3815
09-Sep-2020 11:20:31.272,-0.6859, 0.1996,-0.4050,-0.9715,-0.5759,-1.3501,-0.9464,-0.3153,-1.3967
09-Sep-2020 11:20:31.282,-0.6412, 0.1815,-0.4853,-1.0382,-0.5361,-1.2858,-0.9573,-0.3100,-1.4130
09-Sep-2020 11:20:31.292,-0.6287, 0.1647,-0.5132,-1.0789,-0.4269,-1.1235,-0.9676,-0.3055,-1.4294
09-Sep-2020 11:20:31.302,-0.6067, 0.1502,-0.5703,-1.0588,-0.2492,-0.9584,-0.9765,-0.3023,-1.4452
09-Sep-2020 11:20:31.311,-0.5870, 0.1408,-0.6425,-0.9406,-0.2982,-0.7682,-0.9834,-0.3003,-1.4598
09-Sep-2020 11:20:31.321,-0.5721, 0.2119,-0.6207,-0.8362,-0.2370,-0.6364,-0.9900,-0.2991,-1.4724
09-Sep-2020 11:20:31.331,-0.6716, 0.2365,-0.6591,-0.6755,-0.2370,-0.5267,-0.9956,-0.2983,-1.4832
09-Sep-2020 11:20:31.341,-0.8181, 0.1930,-0.6530,-0.4656,-0.3651,-0.6095,-1.0008,-0.2974,-1.4921
09-Sep-2020 11:20:31.351,-0.7630, 0.2447,-0.5582,-0.3601,-0.2204,-0.6234,-1.0064,-0.2949,-1.4995
09-Sep-2020 11:20:31.361,-0.7053, 0.2785,-0.5885,-0.3286,-0.1005,-0.6174,-1.0105,-0.2916,-1.5061
09-Sep-2020 11:20:31.371,-0.6826, 0.2262,-0.6596,-0.1941,-0.3257,-0.6011,-1.0135,-0.2881,-1.5122
09-Sep-2020 11:20:31.381,-0.6625, 0.1842,-0.5853,-0.0399,-0.4206,-0.5524,-1.0181,-0.2841,-1.5171
09-Sep-2020 11:20:31.391,-0.6103, 0.2390,-0.4964, 0.0104,-0.1262,-0.3960,-1.0228,-0.2798,-1.5204
09-Sep-2020 11:20:31.401,-0.5766, 0.2663,-0.5861, 0.0742,-0.1631,-0.2458,-1.0248,-0.2764,-1.5224
09-Sep-2020 11:20:31.411,-0.5090, 0.3069,-0.5512, 0.1398,-0.3153,-0.0385,-1.0268,-0.2740,-1.5229
09-Sep-2020 11:20:31.421,-0.4680, 0.3034,-0.5049, 0.1139,-0.1540, 0.1764,-1.0294,-0.2730,-1.5219
09-Sep-2020 11:20:31.431,-0.4485, 0.3218,-0.5525, 0.1587,-0.2135, 0.5015,-1.0305,-0.2741,-1.5198
09-Sep-2020 11:20:31.441,-0.3923, 0.3670,-0.4513, 0.0654, 0.0896, 0.8546,-1.0313,-0.2776,-1.5158
09-Sep-2020 11:20:31.451,-0.3168, 0.4818,-0.4926,-0.0890, 0.6000, 1.3798,-1.0287,-0.2849,-1.5104
09-Sep-2020 11:20:31.461,-0.3336, 0.4811,-0.7007,-0.1176, 0.4053, 1.7808,-1.0214,-0.2971,-1.5037
09-Sep-2020 11:20:31.471,-0.3450, 0.5058,-0.7257,-0.0521, 0.0918, 1.9493,-1.0148,-0.3126,-1.4950
09-Sep-2020 11:20:31.481,-0.3024, 0.5402,-0.6734, 0.0079, 0.2028, 2.3039,-1.0103,-0.3295,-1.4844
09-Sep-2020 11:20:31.491,-0.3403, 0.5399,-0.7304, 0.0860, 0.4160, 2.6200,-1.0038,-0.3488,-1.4713
09-Sep-2020 11:20:31.501,-0.4223, 0.5428,-0.7897, 0.3071, 0.3253, 2.8638,-0.9943,-0.3702,-1.4553
09-Sep-2020 11:20:31.511,-0.5208, 0.5666,-0.6923, 0.4540, 0.5737, 3.0571,-0.9835,-0.3924,-1.4357
09-Sep-2020 11:20:31.521,-0.5586, 0.5920,-0.6980, 0.5630, 0.8040, 3.2114,-0.9689,-0.4151,-1.4131
09-Sep-2020 11:20:31.531,-0.5544, 0.6765,-0.7392, 0.6688, 0.7000, 3.2758,-0.9506,-0.4381,-1.3878
09-Sep-2020 11:20:31.541,-0.5654, 0.7881,-0.7008, 0.7414, 0.3923, 3.3014,-0.9320,-0.4605,-1.3605
09-Sep-2020 11:20:31.551,-0.6165, 0.8568,-0.6110, 0.6952, 0.3154, 3.3259,-0.9148,-0.4824,-1.3317
09-Sep-2020 11:20:31.560,-0.6591, 0.8369,-0.6011, 0.6530, 0.2427, 3.3209,-0.8977,-0.5042,-1.3022
09-Sep-2020 11:20:31.570,-0.6551, 0.7734,-0.5796, 0.6352, 0.2602, 3.2825,-0.8806,-0.5258,-1.2724
09-Sep-2020 11:20:31.580,-0.6167, 0.7451,-0.5634, 0.6122, 0.3496, 3.2674,-0.8625,-0.5468,-1.2422
09-Sep-2020 11:20:31.590,-0.6127, 0.7452,-0.5695, 0.5589, 0.4258, 3.2201,-0.8429,-0.5673,-1.2116
09-Sep-2020 11:20:31.600,-0.6672, 0.7581,-0.5956, 0.5100, 0.4331, 3.0985,-0.8219,-0.5872,-1.1809
09-Sep-2020 11:20:31.610,-0.7418, 0.7639,-0.6344, 0.4965, 0.3784, 2.8839,-0.8007,-0.6061,-1.1507
09-Sep-2020 11:20:31.620,-0.7848, 0.7590,-0.6722, 0.5488, 0.2488, 2.6036,-0.7802,-0.6230,-1.1216
09-Sep-2020 11:20:31.630,-0.7813, 0.7481,-0.7025, 0.6426, 0.0578, 2.3200,-0.7614,-0.6371,-1.0937
09-Sep-2020 11:20:31.640,-0.7274, 0.7337,-0.6879, 0.7971,-0.0942, 2.0968,-0.7448,-0.6483,-1.0671
09-Sep-2020 11:20:31.650,-0.5945, 0.7031,-0.6197, 0.9204, 0.2120, 2.0415,-0.7294,-0.6565,-1.0407
09-Sep-2020 11:20:31.660,-0.4831, 0.6078,-0.6666, 1.1310, 0.3738, 2.1420,-0.7109,-0.6630,-1.0134
09-Sep-2020 11:20:31.670,-0.4574, 0.5674,-0.6227, 1.2682, 0.5587, 2.2166,-0.6886,-0.6682,-0.9834
09-Sep-2020 11:20:31.680,-0.4879, 0.6093,-0.5837, 1.3194, 0.7489, 2.3096,-0.6631,-0.6722,-0.9513
09-Sep-2020 11:20:31.689,-0.5956, 0.6498,-0.5658, 1.3564, 0.9297, 2.3212,-0.6347,-0.6757,-0.9177
09-Sep-2020 11:20:31.700,-0.6184, 0.6876,-0.5430, 1.3822, 1.0938, 2.2732,-0.6040,-0.6781,-0.8835
09-Sep-2020 11:20:31.710,-0.6017, 0.7106,-0.5599, 1.4255, 1.0842, 2.1970,-0.5718,-0.6792,-0.8494
09-Sep-2020 11:20:31.720,-0.5850, 0.7157,-0.5201, 1.4628, 0.8538, 2.0544,-0.5401,-0.6787,-0.8158
09-Sep-2020 11:20:31.730,-0.5293, 0.7452,-0.4015, 1.3870, 0.7616, 1.9585,-0.5114,-0.6764,-0.7836
09-Sep-2020 11:20:31.741,-0.4399, 0.7540,-0.3078, 1.2312, 0.9566, 1.9404,-0.4845,-0.6737,-0.7531
09-Sep-2020 11:20:31.749,-0.3427, 0.7371,-0.2987, 1.0333, 1.1366, 1.9660,-0.4568,-0.6716,-0.7239
09-Sep-2020 11:20:31.759,-0.2793, 0.7337,-0.2959, 0.8428, 1.3947, 1.9771,-0.4278,-0.6707,-0.6956
09-Sep-2020 11:20:31.769,-0.2478, 0.7183,-0.3308, 0.6742, 1.6920, 2.0571,-0.3968,-0.6709,-0.6681
09-Sep-2020 11:20:31.779,-0.2749, 0.6929,-0.4358, 0.6438, 1.7601, 2.1453,-0.3629,-0.6722,-0.6405
09-Sep-2020 11:20:31.789,-0.3133, 0.6541,-0.4753, 0.6424, 1.4894, 2.1155,-0.3279,-0.6733,-0.6121
09-Sep-2020 11:20:31.799,-0.2581, 0.6357,-0.4070, 0.5704, 1.1947, 2.0886,-0.2955,-0.6737,-0.5838
09-Sep-2020 11:20:31.809,-0.1793, 0.6793,-0.2888, 0.3562, 1.1891, 2.1785,-0.2661,-0.6742,-0.5561
09-Sep-2020 11:20:31.819,-0.1243, 0.7665,-0.2491, 0.0313, 1.3482, 2.3409,-0.2366,-0.6762,-0.5279
09-Sep-2020 11:20:31.829,-0.0779, 0.8404,-0.2923,-0.3135, 1.4675, 2.4670,-0.2048,-0.6810,-0.4986
09-Sep-2020 11:20:31.839,-0.0448, 0.8729,-0.3894,-0.6098, 1.4276, 2.5386,-0.1710,-0.6885,-0.4681
09-Sep-2020 11:20:31.849,-0.0696, 0.8703,-0.5066,-0.8340, 1.1764, 2.5320,-0.1370,-0.6984,-0.4368
09-Sep-2020 11:20:31.859,-0.1433, 0.8819,-0.5839,-0.9336, 0.9366, 2.4386,-0.1049,-0.7095,-0.4053
09-Sep-2020 11:20:31.869,-0.2123, 0.8990,-0.6341,-0.9317, 0.8571, 2.2722,-0.0752,-0.7209,-0.3743
09-Sep-2020 11:20:31.879,-0.2254, 0.9353,-0.7053,-0.8256, 0.7095, 2.0665,-0.0471,-0.7314,-0.3448
09-Sep-2020 11:20:31.889,-0.1880, 0.9948,-0.7306,-0.6568, 0.4722, 1.8680,-0.0217,-0.7402,-0.3174
09-Sep-2020 11:20:31.899,-0.1404, 1.0129,-0.7105,-0.5006, 0.2559, 1.7098, 0.0002,-0.7470,-0.2921
09-Sep-2020 11:20:31.909,-0.0913, 0.9930,-0.6750,-0.3568, 0.1640, 1.5665, 0.0187,-0.7517,-0.2687
09-Sep-2020 11:20:31.918,-0.0479, 0.9426,-0.6681,-0.2647, 0.0646, 1.4572, 0.0351,-0.7549,-0.2470
09-Sep-2020 11:20:31.929,-0.0448, 0.9244,-0.6734,-0.1594,-0.1007, 1.3376, 0.0495,-0.7568,-0.2269
09-Sep-2020 11:20:31.938,-0.0837, 0.9426,-0.6562,-0.0956,-0.2530, 1.1970, 0.0612,-0.7577,-0.2084
09-Sep-2020 11:20:31.949,-0.1300, 0.9709,-0.6521,-0.0617,-0.3977, 1.0109, 0.0700,-0.7578,-0.1919
09-Sep-2020 11:20:31.958,-0.1549, 0.9685,-0.6695,-0.0288,-0.6313, 0.7875, 0.0756,-0.7577,-0.1779
09-Sep-2020 11:20:31.968,-0.1573, 0.9247,-0.6560, 0.0041,-0.8263, 0.5533, 0.0768,-0.7573,-0.1671
09-Sep-2020 11:20:31.979,-0.1580, 0.8409,-0.6282, 0.0268,-0.9102, 0.3699, 0.0739,-0.7569,-0.1593
09-Sep-2020 11:20:31.989,-0.1694, 0.7679,-0.6083, 0.0399,-0.8962, 0.2160, 0.0685,-0.7563,-0.1542
09-Sep-2020 11:20:31.998,-0.1700, 0.7185,-0.5965, 0.0476,-0.8630, 0.0931, 0.0616,-0.7557,-0.1512
09-Sep-2020 11:20:32.008,-0.1564, 0.6840,-0.5938, 0.0877,-0.8600,-0.0377, 0.0539,-0.7551,-0.1499
09-Sep-2020 11:20:32.018,-0.0697, 0.6923,-0.5376, 0.0766,-0.7798,-0.0510, 0.0451,-0.7543,-0.1503
09-Sep-2020 11:20:32.028,-0.0301, 0.6580,-0.5060,-0.0082,-0.6316,-0.0005, 0.0370,-0.7535,-0.1509
09-Sep-2020 11:20:32.038, 0.0134, 0.6234,-0.5057,-0.1001,-0.5605, 0.1284, 0.0307,-0.7536,-0.1507
09-Sep-2020 11:20:32.048, 0.0338, 0.6273,-0.4843,-0.2454,-0.4707, 0.3056, 0.0265,-0.7546,-0.1488
09-Sep-2020 11:20:32.058,-0.0198, 0.6830,-0.4996,-0.4039,-0.4300, 0.4405, 0.0247,-0.7569,-0.1444
09-Sep-2020 11:20:32.068,-0.2158, 0.7664,-0.7056,-0.4551,-0.1112, 0.4634, 0.0248,-0.7608,-0.1382
09-Sep-2020 11:20:32.078,-0.6051, 0.9837,-2.2456, 0.9561, 1.0958, 0.2817, 0.0298,-0.7636,-0.1320
09-Sep-2020 11:20:32.089,-0.3870, 1.0864,-1.9244, 1.9735,-0.2359, 0.1014, 0.0408,-0.7544,-0.1285
09-Sep-2020 11:20:32.098,-0.0432, 0.9163,-0.4781, 1.8270,-0.5045,-0.1827, 0.0397,-0.7356,-0.1282
09-Sep-2020 11:20:32.108, 0.1663, 0.6947,-0.3763, 1.3440,-0.3949,-0.1275, 0.0330,-0.7176,-0.1310
09-Sep-2020 11:20:32.118, 0.3032, 0.6896,-0.6138, 1.0621,-0.2949, 0.1129, 0.0277,-0.7041,-0.1330
09-Sep-2020 11:20:32.128, 0.3926, 0.7527,-0.9127, 1.0400,-0.2329, 0.4197, 0.0255,-0.6933,-0.1317
09-Sep-2020 11:20:32.138, 0.2738, 0.7429,-0.9253, 1.0913,-0.2501, 0.5722, 0.0264,-0.6827,-0.1267
09-Sep-2020 11:20:32.148, 0.1270, 0.6428,-0.8094, 1.0615,-0.4286, 0.5431, 0.0281,-0.6718,-0.1198
09-Sep-2020 11:20:32.158, 0.1040, 0.5605,-0.8828, 1.1183,-0.6581, 0.4726, 0.0278,-0.6610,-0.1133
09-Sep-2020 11:20:32.168, 0.1684, 0.5341,-0.8273, 1.1662,-0.6752, 0.4447, 0.0249,-0.6497,-0.1076
09-Sep-2020 11:20:32.178, 0.2383, 0.5138,-0.7243, 1.1054,-0.5962, 0.4854, 0.0214,-0.6380,-0.1022
09-Sep-2020 11:20:32.188, 0.1642, 0.4657,-0.7670, 1.0741,-0.5538, 0.4767, 0.0189,-0.6269,-0.0965
09-Sep-2020 11:20:32.198, 0.0437, 0.4202,-0.6871, 0.9939,-0.3401, 0.4033, 0.0169,-0.6161,-0.0908
09-Sep-2020 11:20:32.207,-0.0823, 0.4958,-0.7475, 0.9144,-0.2890, 0.2668, 0.0160,-0.6061,-0.0861
09-Sep-2020 11:20:32.217,-0.1072, 0.6083,-0.8152, 0.8842,-0.3643, 0.1369, 0.0148,-0.5969,-0.0829
09-Sep-2020 11:20:32.227,-0.0334, 0.6292,-0.8229, 0.8108,-0.4350, 0.1039, 0.0121,-0.5880,-0.0813
09-Sep-2020 11:20:32.237, 0.0516, 0.5993,-0.8165, 0.7215,-0.5156, 0.1768, 0.0085,-0.5799,-0.0799
09-Sep-2020 11:20:32.247, 0.0647, 0.5452,-0.7886, 0.6305,-0.5872, 0.2720, 0.0045,-0.5727,-0.0778
09-Sep-2020 11:20:32.257, 0.0032, 0.4523,-0.7687, 0.5837,-0.5843, 0.3626, 0.0005,-0.5664,-0.0745
09-Sep-2020 11:20:32.267,-0.0578, 0.3837,-0.7283, 0.5847,-0.5321, 0.4015,-0.0030,-0.5605,-0.0702
09-Sep-2020 11:20:32.277,-0.0459, 0.3628,-0.6923, 0.5887,-0.3975, 0.4183,-0.0057,-0.5547,-0.0654
09-Sep-2020 11:20:32.287, 0.0162, 0.4028,-0.7090, 0.6119,-0.2106, 0.4288,-0.0070,-0.5488,-0.0604
09-Sep-2020 11:20:32.297, 0.0430, 0.4298,-0.7542, 0.6366,-0.0221, 0.4645,-0.0065,-0.5427,-0.0552
09-Sep-2020 11:20:32.307, 0.0133, 0.4329,-0.7638, 0.5480, 0.3394, 0.5569,-0.0036,-0.5364,-0.0497
09-Sep-2020 11:20:32.317, 0.1191, 0.3961,-0.7949, 0.3813, 0.3391, 0.8916, 0.0029,-0.5309,-0.0431
09-Sep-2020 11:20:32.326, 0.0461, 0.2993,-0.8335, 0.2992, 0.2225, 1.2649, 0.0115,-0.5270,-0.0327
09-Sep-2020 11:20:32.336,-0.0474, 0.3097,-0.8316, 0.2813, 0.1522, 1.4168, 0.0210,-0.5238,-0.0183
09-Sep-2020 11:20:32.347,-0.0086, 0.3102,-0.8278, 0.2523, 0.1649, 1.5185, 0.0306,-0.5206,-0.0021
09-Sep-2020 11:20:32.356, 0.0203, 0.3193,-0.8175, 0.1530, 0.2252, 1.6857, 0.0410,-0.5175, 0.0154
09-Sep-2020 11:20:32.366, 0.0307, 0.3305,-0.7848,-0.0519, 0.2948, 1.9058, 0.0527,-0.5152, 0.0347
09-Sep-2020 11:20:32.376, 0.0519, 0.3687,-0.7770,-0.2984, 0.4004, 2.1243, 0.0665,-0.5146, 0.0566
09-Sep-2020 11:20:32.386, 0.0639, 0.4213,-0.7896,-0.5413, 0.5773, 2.2898, 0.0826,-0.5159, 0.0811
09-Sep-2020 11:20:32.396, 0.0499, 0.4656,-0.7996,-0.8153, 0.7541, 2.3630, 0.1015,-0.5192, 0.1078
09-Sep-2020 11:20:32.406, 0.0577, 0.4721,-0.8254,-1.1164, 0.8753, 2.3978, 0.1230,-0.5246, 0.1358
09-Sep-2020 11:20:32.416, 0.0832, 0.4515,-0.8597,-1.4265, 0.9134, 2.5106, 0.1464,-0.5324, 0.1651
09-Sep-2020 11:20:32.426, 0.1220, 0.4432,-0.8793,-1.7345, 0.8654, 2.8050, 0.1716,-0.5424, 0.1967
09-Sep-2020 11:20:32.436, 0.1526, 0.4403,-0.8740,-2.0079, 0.8022, 3.2557, 0.1990,-0.5541, 0.2327
09-Sep-2020 11:20:32.446, 0.1583, 0.4687,-0.8634,-2.2246, 0.7393, 3.7616, 0.2296,-0.5667, 0.2752
09-Sep-2020 11:20:32.456, 0.1793, 0.5325,-0.8539,-2.3765, 0.6668, 4.2200, 0.2639,-0.5789, 0.3249
09-Sep-2020 11:20:32.466, 0.2157, 0.5987,-0.8321,-2.4988, 0.5390, 4.5583, 0.3015,-0.5899, 0.3811
09-Sep-2020 11:20:32.476, 0.2435, 0.6533,-0.7933,-2.6123, 0.4362, 4.7945, 0.3413,-0.5991, 0.4426
09-Sep-2020 11:20:32.486, 0.2684, 0.6984,-0.7594,-2.7208, 0.3801, 4.9895, 0.3827,-0.6065, 0.5080
09-Sep-2020 11:20:32.496, 0.2996, 0.7182,-0.7513,-2.8074, 0.3408, 5.1533, 0.4258,-0.6118, 0.5767
09-Sep-2020 11:20:32.506, 0.3639, 0.7071,-0.7462,-2.8982, 0.2813, 5.3179, 0.4703,-0.6147, 0.6481
09-Sep-2020 11:20:32.516, 0.4471, 0.7062,-0.7407,-3.0049, 0.1376, 5.4684, 0.5157,-0.6150, 0.7219
09-Sep-2020 11:20:32.526, 0.5012, 0.7128,-0.7134,-3.1133,-0.0263, 5.6012, 0.5608,-0.6127, 0.7979
09-Sep-2020 11:20:32.536, 0.5531, 0.7104,-0.6802,-3.1778,-0.1792, 5.7364, 0.6050,-0.6078, 0.8755
09-Sep-2020 11:20:32.546, 0.5901, 0.7215,-0.6280,-3.1944,-0.3117, 5.8478, 0.6479,-0.5998, 0.9543
09-Sep-2020 11:20:32.555, 0.5933, 0.7424,-0.5536,-3.1698,-0.3972, 5.8842, 0.6891,-0.5886, 1.0331
09-Sep-2020 11:20:32.565, 0.6060, 0.7384,-0.4994,-3.0940,-0.4733, 5.8617, 0.7278,-0.5744, 1.1109
09-Sep-2020 11:20:32.575, 0.6416, 0.7278,-0.4563,-2.9381,-0.4797, 5.7849, 0.7636,-0.5573, 1.1864
09-Sep-2020 11:20:32.586, 0.6569, 0.7225,-0.4139,-2.7607,-0.4446, 5.6323, 0.7963,-0.5375, 1.2584
09-Sep-2020 11:20:32.595, 0.6815, 0.7323,-0.3782,-2.6135,-0.3621, 5.4202, 0.8260,-0.5158, 1.3261
09-Sep-2020 11:20:32.605, 0.7427, 0.7231,-0.3768,-2.4670,-0.2767, 5.2090, 0.8530,-0.4929, 1.3894
09-Sep-2020 11:20:32.615, 0.7868, 0.7038,-0.3840,-2.3114,-0.2276, 5.0312, 0.8775,-0.4693, 1.4484
09-Sep-2020 11:20:32.625, 0.7776, 0.6878,-0.3920,-2.1740,-0.2410, 4.8029, 0.8995,-0.4448, 1.5035
09-Sep-2020 11:20:32.635, 0.7775, 0.6409,-0.3799,-2.0421,-0.2206, 4.5347, 0.9186,-0.4204, 1.5547
09-Sep-2020 11:20:32.645, 0.7679, 0.5538,-0.3879,-1.9089,-0.2053, 4.2607, 0.9352,-0.3964, 1.6019
09-Sep-2020 11:20:32.655, 0.7676, 0.4688,-0.3846,-1.8087,-0.2453, 4.0470, 0.9494,-0.3732, 1.6454
09-Sep-2020 11:20:32.665, 0.7839, 0.3924,-0.3779,-1.7208,-0.2898, 3.9516, 0.9614,-0.3505, 1.6861
09-Sep-2020 11:20:32.675, 0.7890, 0.3332,-0.3803,-1.5915,-0.2914, 3.9358, 0.9714,-0.3277, 1.7247
09-Sep-2020 11:20:32.685, 0.8155, 0.2994,-0.3773,-1.4257,-0.2329, 3.9661, 0.9800,-0.3041, 1.7617
09-Sep-2020 11:20:32.695, 0.8535, 0.2852,-0.3778,-1.2296,-0.1673, 4.0184, 0.9877,-0.2790, 1.7968
09-Sep-2020 11:20:32.705, 0.8714, 0.2782,-0.3854,-1.0267,-0.0904, 4.0500, 0.9948,-0.2521, 1.8301
09-Sep-2020 11:20:32.715, 0.8823, 0.2701,-0.3880,-0.8340,-0.0151, 4.0495, 1.0013,-0.2237, 1.8614
09-Sep-2020 11:20:32.725, 0.9648, 0.2432,-0.5180,-0.6406,-0.0117, 4.0395, 1.0073,-0.1941, 1.8907
09-Sep-2020 11:20:32.735, 0.9814, 0.2200,-0.9393,-0.2852,-1.0209, 4.0173, 1.0109,-0.1632, 1.9178
09-Sep-2020 11:20:32.745, 0.8506, 0.1436,-0.5901, 0.0271,-0.9207, 3.9102, 1.0052,-0.1309, 1.9418
09-Sep-2020 11:20:32.755, 0.9307, 0.1237,-0.5138, 0.1169,-0.5868, 3.7969, 0.9984,-0.0980, 1.9628
09-Sep-2020 11:20:32.764, 0.9283, 0.1448,-0.6322, 0.0518,-0.6481, 3.6904, 0.9939,-0.0656, 1.9825
09-Sep-2020 11:20:32.775, 0.9013, 0.1639,-0.5626,-0.0685,-0.4854, 3.5889, 0.9886,-0.0345, 2.0023
09-Sep-2020 11:20:32.784, 0.8572, 0.1715,-0.4857,-0.3073,-0.2865, 3.4257, 0.9842,-0.0051, 2.0226
09-Sep-2020 11:20:32.794, 0.8446, 0.1148,-0.4834,-0.6141,-0.1952, 3.2366, 0.9810, 0.0216, 2.0441
09-Sep-2020 11:20:32.804, 0.8591, 0.0430,-0.5130,-0.8769,-0.0901, 3.0863, 0.9783, 0.0451, 2.0672
09-Sep-2020 11:20:32.814, 0.8582,-0.0139,-0.5423,-1.1406,-0.0314, 2.9434, 0.9761, 0.0657, 2.0917
09-Sep-2020 11:20:32.824, 0.8847,-0.0589,-0.5779,-1.3733,-0.1303, 2.8543, 0.9737, 0.0837, 2.1176
09-Sep-2020 11:20:32.834, 0.9205,-0.1065,-0.6002,-1.4609,-0.2175, 2.8047, 0.9699, 0.0997, 2.1450
09-Sep-2020 11:20:32.844, 0.9010,-0.1263,-0.6067,-1.4049,-0.2473, 2.7559, 0.9648, 0.1145, 2.1729
09-Sep-2020 11:20:32.854, 0.8568,-0.1328,-0.5982,-1.2957,-0.2725, 2.7630, 0.9590, 0.1292, 2.2002
09-Sep-2020 11:20:32.864, 0.8222,-0.1477,-0.5646,-1.2034,-0.3329, 2.8420, 0.9526, 0.1443, 2.2269
09-Sep-2020 11:20:32.874, 0.8078,-0.1496,-0.4960,-1.1444,-0.2131, 2.9644, 0.9454, 0.1604, 2.2535
09-Sep-2020 11:20:32.884, 0.8137,-0.1020,-0.4856,-1.1288, 0.0473, 3.0652, 0.9388, 0.1776, 2.2805
09-Sep-2020 11:20:32.894, 0.8095,-0.0914,-0.4971,-1.1965, 0.1877, 3.1057, 0.9341, 0.1956, 2.3081
09-Sep-2020 11:20:32.904, 0.7789,-0.1534,-0.4937,-1.3414, 0.2190, 3.0776, 0.9300, 0.2133, 2.3367
09-Sep-2020 11:20:32.914, 0.7719,-0.2448,-0.5108,-1.4905, 0.2257, 3.0543, 0.9256, 0.2299, 2.3665
09-Sep-2020 11:20:32.924, 0.7388,-0.3213,-0.5432,-1.6238, 0.3076, 3.0574, 0.9206, 0.2453, 2.3976
09-Sep-2020 11:20:32.934, 0.6690,-0.3590,-0.5553,-1.7101, 0.4788, 3.0352, 0.9157, 0.2597, 2.4299
09-Sep-2020 11:20:32.944, 0.7053,-0.3552,-0.5737,-1.7312, 0.4541, 3.0761, 0.9115, 0.2734, 2.4630
09-Sep-2020 11:20:32.954, 0.7543,-0.3264,-0.5359,-1.6709, 0.3226, 3.1470, 0.9066, 0.2871, 2.4967
09-Sep-2020 11:20:32.964, 0.7920,-0.2822,-0.4700,-1.5157, 0.2479, 3.1908, 0.9000, 0.3015, 2.5306
09-Sep-2020 11:20:32.974, 0.8381,-0.2227,-0.4452,-1.2749, 0.1970, 3.2812, 0.8924, 0.3170, 2.5637
09-Sep-2020 11:20:32.984, 0.8653,-0.1780,-0.4274,-1.0087, 0.1582, 3.4813, 0.8841, 0.3345, 2.5959
09-Sep-2020 11:20:32.994, 0.9173,-0.1265,-0.4397,-0.7454, 0.1655, 3.8614, 0.8749, 0.3550, 2.6277
09-Sep-2020 11:20:33.004, 0.9659,-0.0798,-0.4779,-0.4742, 0.2040, 4.4720, 0.8648, 0.3797, 2.6605
09-Sep-2020 11:20:33.014, 1.0695,-0.0631,-0.5313,-0.2223, 0.1817, 5.2699, 0.8532, 0.4105, 2.6960
09-Sep-2020 11:20:33.023, 1.2690,-0.1192,-0.5716, 0.0018, 0.0456, 5.8292, 0.8379, 0.4480, 2.7359
09-Sep-2020 11:20:33.033, 1.2226,-0.2894,-0.5876, 0.2825, 0.2803, 6.3442, 0.8184, 0.4909, 2.7799
09-Sep-2020 11:20:33.043, 0.6406,-0.4503,-0.4820, 0.4800, 1.0439, 6.3218, 0.7983, 0.5383, 2.8274
09-Sep-2020 11:20:33.053, 0.0396,-0.6527,-0.3783, 0.4130, 2.0036, 5.6290, 0.7831, 0.5860, 2.8755
09-Sep-2020 11:20:33.064, 0.0493,-0.7282,-0.2581, 0.0436, 2.6923, 4.4802, 0.7772, 0.6280, 2.9205
09-Sep-2020 11:20:33.073, 0.1362,-0.6113,-0.3158,-0.4798, 2.5878, 3.0954, 0.7799, 0.6595, 2.9598
09-Sep-2020 11:20:33.083, 0.0908,-0.5165,-0.5012,-1.0268, 1.5058, 1.5750, 0.7851, 0.6778, 2.9919
09-Sep-2020 11:20:33.093, 0.1465,-0.5027,-0.5184,-1.5730, 0.4738, 0.1783, 0.7852, 0.6818, 3.0155
09-Sep-2020 11:20:33.103, 0.3548,-0.4899,-0.3877,-2.1848, 0.1095,-0.7787, 0.7803, 0.6722, 3.0317
09-Sep-2020 11:20:33.114, 0.5156,-0.4091,-0.3704,-2.7778, 0.1233,-1.2293, 0.7738, 0.6515, 3.0443
09-Sep-2020 11:20:33.123, 0.5641,-0.3133,-0.4003,-3.3047, 0.2865,-1.3908, 0.7672, 0.6234, 3.0575
09-Sep-2020 11:20:33.133, 0.7577,-0.2883,-0.4219,-3.7845, 0.5806,-1.1838, 0.7612, 0.5903, 3.0733
09-Sep-2020 11:20:33.143, 0.9087,-0.2671,-0.5147,-4.1913, 0.7092,-0.7099, 0.7556, 0.5551, 3.0941
09-Sep-2020 11:20:33.153, 0.9589,-0.2613,-0.6709,-4.4898, 0.4043,-0.1556, 0.7484, 0.5200, 3.1213
09-Sep-2020 11:20:33.163, 0.9698,-0.2721,-1.2338,-4.4910,-0.3171, 0.4030, 0.7365, 0.4861,-3.1288
09-Sep-2020 11:20:33.173, 0.7994,-0.3241,-1.3360,-3.4716,-0.9946, 0.9062, 0.7158, 0.4565,-3.0930
09-Sep-2020 11:20:33.183, 0.4893,-0.3470,-0.4927,-3.2070,-0.0622, 0.9741, 0.6928, 0.4354,-3.0603
09-Sep-2020 11:20:33.193, 0.4697,-0.4302,-1.0680,-2.4809,-0.2332, 1.1069, 0.6787, 0.4173,-3.0301
09-Sep-2020 11:20:33.202, 0.4718,-0.2761,-0.7488,-1.7891, 0.1046, 1.2062, 0.6665, 0.4049,-3.0038
09-Sep-2020 11:20:33.212, 0.4191,-0.1718,-0.5944,-1.4298, 0.3627, 1.2549, 0.6587, 0.3981,-2.9815
09-Sep-2020 11:20:33.222, 0.3142,-0.1670,-0.5963,-1.2815, 0.5432, 1.2078, 0.6545, 0.3944,-2.9613
09-Sep-2020 11:20:33.233, 0.2526,-0.1424,-0.5735,-1.2269, 0.6336, 1.0347, 0.6526, 0.3916,-2.9426
09-Sep-2020 11:20:33.242, 0.1876,-0.1274,-0.5502,-1.2378, 0.7065, 0.7006, 0.6525, 0.3881,-2.9258
09-Sep-2020 11:20:33.252, 0.1529,-0.1399,-0.5262,-1.2772, 0.8398, 0.2885, 0.6543, 0.3826,-2.9117
09-Sep-2020 11:20:33.262, 0.1392,-0.1456,-0.5125,-1.3411, 1.0258,-0.1457, 0.6587, 0.3743,-2.9009
09-Sep-2020 11:20:33.272, 0.1587,-0.1609,-0.5131,-1.4009, 1.2369,-0.5455, 0.6662, 0.3630,-2.8932
09-Sep-2020 11:20:33.282, 0.2188,-0.1946,-0.5330,-1.4495, 1.4458,-0.8431, 0.6768, 0.3488,-2.8884
09-Sep-2020 11:20:33.292, 0.3028,-0.2348,-0.5783,-1.4519, 1.5828,-1.0160, 0.6902, 0.3325,-2.8856
09-Sep-2020 11:20:33.302, 0.3862,-0.2610,-0.6296,-1.4323, 1.6153,-1.0740, 0.7053, 0.3151,-2.8839
09-Sep-2020 11:20:33.312, 0.4589,-0.2588,-0.6820,-1.3855, 1.5126,-1.0634, 0.7209, 0.2974,-2.8825
09-Sep-2020 11:20:33.322, 0.5185,-0.2488,-0.7294,-1.3559, 1.2396,-1.0067, 0.7354, 0.2802,-2.8811
09-Sep-2020 11:20:33.332, 0.5487,-0.2446,-0.7747,-1.3566, 0.9289,-0.9272, 0.7472, 0.2635,-2.8792
09-Sep-2020 11:20:33.342, 0.5396,-0.2337,-0.8031,-1.4060, 0.7576,-0.8748, 0.7559, 0.2474,-2.8766
09-Sep-2020 11:20:33.352, 0.5280,-0.2170,-0.8207,-1.4809, 0.7419,-0.8601, 0.7627, 0.2313,-2.8732
09-Sep-2020 11:20:33.362, 0.5277,-0.1968,-0.8445,-1.5411, 0.7712,-0.8927, 0.7692, 0.2148,-2.8691
09-Sep-2020 11:20:33.372, 0.5448,-0.1839,-0.8601,-1.5413, 0.7434,-0.9604, 0.7759, 0.1977,-2.8646
09-Sep-2020 11:20:33.382, 0.5812,-0.1859,-0.8590,-1.4691, 0.6326,-1.0296, 0.7825, 0.1802,-2.8606
09-Sep-2020 11:20:33.391, 0.6016,-0.2155,-0.8234,-1.3632, 0.5301,-1.0762, 0.7883, 0.1627,-2.8574
09-Sep-2020 11:20:33.402, 0.6042,-0.2691,-0.7657,-1.2835, 0.5343,-1.0684, 0.7933, 0.1456,-2.8553
09-Sep-2020 11:20:33.411, 0.6001,-0.2960,-0.7368,-1.2925, 0.5819,-1.0084, 0.7983, 0.1291,-2.8535
09-Sep-2020 11:20:33.422, 0.6013,-0.2823,-0.7278,-1.4191, 0.5969,-0.9415, 0.8038, 0.1130,-2.8511
09-Sep-2020 11:20:33.432, 0.6281,-0.2560,-0.7368,-1.6309, 0.5996,-0.8802, 0.8093, 0.0965,-2.8473
09-Sep-2020 11:20:33.441, 0.6717,-0.2191,-0.8043,-1.8457, 0.4883,-0.8051, 0.8147, 0.0791,-2.8415
09-Sep-2020 11:20:33.451, 0.6871,-0.1879,-0.8936,-1.9854, 0.3047,-0.7253, 0.8190, 0.0608,-2.8336
09-Sep-2020 11:20:33.462, 0.6680,-0.1823,-0.9465,-2.0145, 0.2284,-0.6559, 0.8216, 0.0421,-2.8240
09-Sep-2020 11:20:33.471, 0.6443,-0.1810,-0.9651,-1.9075, 0.3002,-0.6134, 0.8236, 0.0238,-2.8138
09-Sep-2020 11:20:33.481, 0.6313,-0.1676,-0.9670,-1.6812, 0.4773,-0.6130, 0.8265, 0.0066,-2.8041
09-Sep-2020 11:20:33.491, 0.6360,-0.1355,-0.9732,-1.4022, 0.6426,-0.6741, 0.8312,-0.0091,-2.7959
09-Sep-2020 11:20:33.501, 0.6508,-0.0924,-1.0055,-1.1584, 0.6613,-0.8002, 0.8376,-0.0235,-2.7901
09-Sep-2020 11:20:33.511, 0.6815,-0.0632,-1.0431,-0.9841, 0.5522,-0.9555, 0.8442,-0.0371,-2.7868
09-Sep-2020 11:20:33.521, 0.7327,-0.0537,-1.0417,-0.8759, 0.4177,-1.0790, 0.8497,-0.0506,-2.7857
09-Sep-2020 11:20:33.531, 0.7786,-0.0740,-1.0027,-0.8044, 0.2986,-1.1236, 0.8538,-0.0643,-2.7861
09-Sep-2020 11:20:33.541, 0.8164,-0.0955,-0.9261,-0.7156, 0.2901,-1.0817, 0.8568,-0.0779,-2.7874
09-Sep-2020 11:20:33.551, 0.8439,-0.0977,-0.8241,-0.5723, 0.4737,-0.9918, 0.8596,-0.0906,-2.7890
09-Sep-2020 11:20:33.561, 0.8799,-0.0942,-0.7843,-0.3660, 0.7505,-0.9057, 0.8642,-0.1017,-2.7911
09-Sep-2020 11:20:33.571, 0.9358,-0.0748,-0.8074,-0.1149, 0.9789,-0.8501, 0.8713,-0.1108,-2.7942
09-Sep-2020 11:20:33.580, 0.9886,-0.0268,-0.8625, 0.1018, 1.0365,-0.8364, 0.8804,-0.1180,-2.7987
09-Sep-2020 11:20:33.590, 1.0203, 0.0318,-0.8916, 0.2189, 0.8923,-0.8803, 0.8898,-0.1238,-2.8048
09-Sep-2020 11:20:33.601, 1.0355, 0.0596,-0.8732, 0.2444, 0.6494,-0.9295, 0.8977,-0.1292,-2.8120
09-Sep-2020 11:20:33.611, 1.0566, 0.0426,-0.8389, 0.2305, 0.4039,-0.9321, 0.9032,-0.1349,-2.8196
09-Sep-2020 11:20:33.621, 1.0826, 0.0035,-0.8149, 0.2390, 0.2193,-0.8641, 0.9062,-0.1406,-2.8272
09-Sep-2020 11:20:33.631, 1.0889,-0.0194,-0.8078, 0.2827, 0.1205,-0.7680, 0.9074,-0.1458,-2.8344
09-Sep-2020 11:20:33.640, 1.0843,-0.0069,-0.8031, 0.3388, 0.0694,-0.6551, 0.9076,-0.1500,-2.8414
09-Sep-2020 11:20:33.651, 1.0676, 0.0254,-0.8159, 0.4095,-0.0105,-0.5678, 0.9072,-0.1530,-2.8482
09-Sep-2020 11:20:33.660, 1.0473, 0.0496,-0.8130, 0.4813,-0.0954,-0.5108, 0.9061,-0.1549,-2.8549
09-Sep-2020 11:20:33.670, 1.0308, 0.0669,-0.8081, 0.5539,-0.1418,-0.4832, 0.9040,-0.1558,-2.8619
09-Sep-2020 11:20:33.681, 1.0335, 0.0845,-0.7845, 0.6100,-0.1705,-0.4522, 0.9015,-0.1561,-2.8693
09-Sep-2020 11:20:33.690, 1.0501, 0.0805,-0.7269, 0.6622,-0.1797,-0.3909, 0.8986,-0.1558,-2.8769
09-Sep-2020 11:20:33.700, 1.0401, 0.0729,-0.6599, 0.7343,-0.1338,-0.3173, 0.8957,-0.1546,-2.8845
09-Sep-2020 11:20:33.710, 1.0110, 0.0779,-0.6142, 0.8392,-0.0093,-0.2759, 0.8932,-0.1524,-2.8923
09-Sep-2020 11:20:33.720, 1.0027, 0.0922,-0.6075, 0.9620, 0.0964,-0.2659, 0.8918,-0.1493,-2.9006
09-Sep-2020 11:20:33.730, 1.0020, 0.1048,-0.5983, 1.0641, 0.1719,-0.2533, 0.8914,-0.1452,-2.9098
09-Sep-2020 11:20:33.741, 0.9818, 0.1143,-0.6201, 1.1248, 0.1950,-0.2470, 0.8917,-0.1405,-2.9197
09-Sep-2020 11:20:33.750, 0.9674, 0.1418,-0.6713, 1.1394, 0.1638,-0.2457, 0.8922,-0.1353,-2.9300
09-Sep-2020 11:20:33.760, 0.9581, 0.1748,-0.6988, 1.1210, 0.1074,-0.2604, 0.8924,-0.1300,-2.9404
09-Sep-2020 11:20:33.770, 0.9524, 0.1682,-0.7299, 1.1367, 0.0952,-0.2782, 0.8922,-0.1249,-2.9508
09-Sep-2020 11:20:33.780, 0.9729, 0.1801,-0.8897, 1.2226, 0.0088,-0.3253, 0.8918,-0.1199,-2.9615
09-Sep-2020 11:20:33.790, 0.9888, 0.2003,-1.0581, 1.3240,-0.1869,-0.3859, 0.8904,-0.1147,-2.9730
09-Sep-2020 11:20:33.800, 1.0068, 0.1893,-1.1666, 1.4119,-0.5473,-0.4274, 0.8870,-0.1093,-2.9857
09-Sep-2020 11:20:33.809, 0.9978, 0.1553,-1.1266, 1.4893,-0.8250,-0.4189, 0.8802,-0.1036,-2.9993
09-Sep-2020 11:20:33.819, 0.8953, 0.1372,-0.9388, 1.6004,-0.9035,-0.3726, 0.8706,-0.0972,-3.0134
09-Sep-2020 11:20:33.829, 0.7980, 0.1281,-0.8088, 1.7879,-0.8003,-0.3387, 0.8604,-0.0895,-3.0281
09-Sep-2020 11:20:33.840, 0.7744, 0.1227,-0.7457, 1.9953,-0.5568,-0.3177, 0.8512,-0.0803,-3.0437
09-Sep-2020 11:20:33.849, 0.7673, 0.0980,-0.7035, 2.1499,-0.3722,-0.3037, 0.8443,-0.0695,-3.0607
09-Sep-2020 11:20:33.859, 0.7757, 0.0640,-0.6771, 2.1770,-0.3037,-0.2842, 0.8394,-0.0575,-3.0787
09-Sep-2020 11:20:33.869, 0.7867, 0.0121,-0.5729, 1.9785,-0.2279,-0.2345, 0.8355,-0.0451,-3.0965
09-Sep-2020 11:20:33.879, 0.7505, 0.0005,-0.4359, 1.6826,-0.2298,-0.1527, 0.8324,-0.0335,-3.1126
09-Sep-2020 11:20:33.889, 0.6353,-0.0383,-0.1919, 1.2935,-0.0968,-0.1100, 0.8298,-0.0233,-3.1259
09-Sep-2020 11:20:33.899, 0.6063, 0.0089,-0.1208, 1.0195, 0.1288,-0.1246, 0.8287,-0.0153,-3.1362
09-Sep-2020 11:20:33.909, 0.5171, 0.0625,-0.0732, 0.8300, 0.4563,-0.2953, 0.8300,-0.0093, 3.1386
09-Sep-2020 11:20:33.919, 0.4588, 0.0484,-0.0364, 0.5654, 0.7681,-0.5907, 0.8344,-0.0059, 3.1305
09-Sep-2020 11:20:33.929, 0.5828, 0.0874,-0.0649, 0.2762, 1.0941,-0.7887, 0.8421,-0.0064, 3.1224
09-Sep-2020 11:20:33.939, 0.6053, 0.1254,-0.1497, 0.0764, 1.4170,-0.8966, 0.8529,-0.0104, 3.1152
09-Sep-2020 11:20:33.949, 0.6932, 0.0970,-0.3188,-0.0327, 1.5600,-0.9009, 0.8668,-0.0165, 3.1088
09-Sep-2020 11:20:33.959, 0.8722, 0.0787,-0.6165, 0.0269, 1.4101,-0.7825, 0.8821,-0.0234, 3.1033
09-Sep-2020 11:20:33.969, 1.0144, 0.1224,-1.0420, 0.4196, 0.8149,-0.4979, 0.8957,-0.0290, 3.0981
09-Sep-2020 11:20:33.979, 0.8082, 0.1494,-0.8678, 0.7643, 0.7202,-0.4719, 0.9041,-0.0305, 3.0916
09-Sep-2020 11:20:33.989, 0.6832, 0.0586,-0.5452, 0.7117, 0.9876,-0.5407, 0.9111,-0.0296, 3.0829
09-Sep-2020 11:20:33.999, 0.5992,-0.0222,-0.3795, 0.3598, 1.0278,-0.6886, 0.9206,-0.0297, 3.0741
09-Sep-2020 11:20:34.009, 0.5857,-0.0217,-0.3230,-0.0795, 0.7761,-0.8890, 0.9304,-0.0330, 3.0672
09-Sep-2020 11:20:34.019, 0.6313, 0.0495,-0.3149,-0.4789, 0.6201,-1.0538, 0.9380,-0.0404, 3.0626
09-Sep-2020 11:20:34.028, 0.6295, 0.0862,-0.5201,-0.6455, 0.4910,-1.2161, 0.9442,-0.0516, 3.0601
09-Sep-2020 11:20:34.039, 0.7394, 0.0488,-0.6029,-0.7019, 0.3467,-1.1860, 0.9490,-0.0649, 3.0583
09-Sep-2020 11:20:34.049, 0.7212, 0.0898,-0.5566,-0.6138, 0.4798,-1.1309, 0.9525,-0.0785, 3.0571
09-Sep-2020 11:20:34.058, 0.6461, 0.1655,-0.5462,-0.4788, 0.6184,-1.1535, 0.9571,-0.0911, 3.0555
09-Sep-2020 11:20:34.068, 0.6025, 0.2290,-0.5419,-0.3489, 0.6958,-1.2900, 0.9630,-0.1032, 3.0528
09-Sep-2020 11:20:34.078, 0.6135, 0.2568,-0.5719,-0.1952, 0.6985,-1.4776, 0.9694,-0.1157, 3.0483
09-Sep-2020 11:20:34.088, 0.6909, 0.2195,-0.5419,-0.0486, 0.7957,-1.5827, 0.9756,-0.1289, 3.0416
09-Sep-2020 11:20:34.098, 0.8224, 0.1508,-0.5012, 0.0226, 0.9719,-1.4922, 0.9824,-0.1420, 3.0332
09-Sep-2020 11:20:34.108, 0.8978, 0.0986,-0.5017, 0.0441, 1.0282,-1.3052, 0.9908,-0.1542, 3.0248
09-Sep-2020 11:20:34.118, 0.8762, 0.0832,-0.4973, 0.0066, 0.9363,-1.1973, 0.9997,-0.1648, 3.0173
09-Sep-2020 11:20:34.128, 0.8610, 0.0882,-0.4810,-0.0789, 0.7122,-1.2114, 1.0078,-0.1749, 3.0108
09-Sep-2020 11:20:34.138, 0.8682, 0.0960,-0.4276,-0.2139, 0.5110,-1.2809, 1.0139,-0.1855, 3.0049
09-Sep-2020 11:20:34.148, 0.8722, 0.1091,-0.4067,-0.3778, 0.2906,-1.3377, 1.0180,-0.1973, 3.0000
09-Sep-2020 11:20:34.158, 0.8813, 0.1291,-0.4047,-0.4894, 0.1195,-1.3571, 1.0201,-0.2105, 2.9961
09-Sep-2020 11:20:34.168, 0.8829, 0.1491,-0.4269,-0.5059,-0.0220,-1.3483, 1.0207,-0.2245, 2.9931
09-Sep-2020 11:20:34.178, 0.9191, 0.1483,-0.4187,-0.4686,-0.1196,-1.2939, 1.0198,-0.2384, 2.9903
09-Sep-2020 11:20:34.188, 0.9623, 0.1335,-0.4154,-0.3856,-0.1501,-1.1414, 1.0180,-0.2517, 2.9874
09-Sep-2020 11:20:34.198, 0.9274, 0.1618,-0.4207,-0.2814,-0.1430,-1.0177, 1.0158,-0.2633, 2.9846
09-Sep-2020 11:20:34.208, 0.9056, 0.2049,-0.4626,-0.1789,-0.1272,-0.9512, 1.0136,-0.2734, 2.9815
09-Sep-2020 11:20:34.217, 0.8649, 0.2154,-0.4939,-0.1316,-0.1378,-0.9347, 1.0113,-0.2823, 2.9779
09-Sep-2020 11:20:34.227, 0.8091, 0.2280,-0.5270,-0.1835,-0.1997,-0.9596, 1.0088,-0.2909, 2.9739
09-Sep-2020 11:20:34.237, 0.7647, 0.2565,-0.5900,-0.2499,-0.3015,-1.0039, 1.0057,-0.2998, 2.9702
09-Sep-2020 11:20:34.248, 0.7337, 0.2446,-0.5393,-0.2919,-0.2221,-1.0117, 1.0017,-0.3095, 2.9668
09-Sep-2020 11:20:34.257, 0.7302, 0.2027,-0.4182,-0.3363, 0.0310,-0.9428, 0.9987,-0.3194, 2.9637
09-Sep-2020 11:20:34.267, 0.7783, 0.1833,-0.4261,-0.3476, 0.1948,-0.8425, 0.9982,-0.3290, 2.9613
09-Sep-2020 11:20:34.277, 0.8741, 0.1871,-0.4974,-0.3233, 0.2660,-0.6520, 0.9995,-0.3378, 2.9596
09-Sep-2020 11:20:34.287, 0.8632, 0.2154,-0.5301,-0.3408, 0.3132,-0.5308, 1.0019,-0.3449, 2.9588
09-Sep-2020 11:20:34.297, 0.8768, 0.2262,-0.5367,-0.3659, 0.2857,-0.4633, 1.0049,-0.3511, 2.9588
09-Sep-2020 11:20:34.307, 0.8793, 0.2391,-0.5007,-0.4260, 0.1647,-0.4735, 1.0079,-0.3570, 2.9594
09-Sep-2020 11:20:34.317, 0.8824, 0.2375,-0.4243,-0.4618, 0.1721,-0.4822, 1.0100,-0.3631, 2.9606
09-Sep-2020 11:20:34.327, 0.8671, 0.2443,-0.4002,-0.4761, 0.1707,-0.4537, 1.0123,-0.3695, 2.9620
09-Sep-2020 11:20:34.337, 0.8583, 0.2695,-0.4030,-0.4557, 0.1699,-0.4182, 1.0146,-0.3758, 2.9638
09-Sep-2020 11:20:34.347, 0.7710, 0.2994,-0.3750,-0.4467, 0.3066,-0.4511, 1.0170,-0.3816, 2.9655
09-Sep-2020 11:20:34.357, 0.7160, 0.3352,-0.4424,-0.4512, 0.3857,-0.5483, 1.0206,-0.3878, 2.9671
09-Sep-2020 11:20:34.367, 0.7362, 0.3565,-0.4622,-0.4425, 0.4204,-0.5912, 1.0248,-0.3946, 2.9681
09-Sep-2020 11:20:34.377, 0.6849, 0.3740,-0.4524,-0.4547, 0.4904,-0.6367, 1.0293,-0.4019, 2.9689
09-Sep-2020 11:20:34.387, 0.6372, 0.4010,-0.4699,-0.4307, 0.5715,-0.6818, 1.0344,-0.4095, 2.9696
09-Sep-2020 11:20:34.397, 0.6131, 0.4103,-0.4659,-0.4032, 0.7192,-0.7691, 1.0402,-0.4175, 2.9699
09-Sep-2020 11:20:34.407, 0.6435, 0.4017,-0.5050,-0.3162, 0.8234,-0.8259, 1.0472,-0.4260, 2.9694
09-Sep-2020 11:20:34.418, 0.6616, 0.3972,-0.5325,-0.1736, 0.9359,-0.8276, 1.0547,-0.4345, 2.9679
09-Sep-2020 11:20:34.427, 0.7036, 0.4141,-0.5737, 0.0088, 0.9759,-0.8022, 1.0628,-0.4425, 2.9651
09-Sep-2020 11:20:34.437, 0.7211, 0.4488,-0.5643, 0.1530, 0.9684,-0.8407, 1.0706,-0.4494, 2.9608
09-Sep-2020 11:20:34.447, 0.7109, 0.4775,-0.5177, 0.2153, 0.9282,-0.9424, 1.0776,-0.4560, 2.9549
09-Sep-2020 11:20:34.457, 0.6876, 0.5059,-0.4421, 0.1536, 0.8799,-1.1338, 1.0837,-0.4633, 2.9479
09-Sep-2020 11:20:34.467, 0.7087, 0.5103,-0.3970, 0.0360, 0.8053,-1.3430, 1.0891,-0.4725, 2.9405
09-Sep-2020 11:20:34.476, 0.7501, 0.4695,-0.3585,-0.1013, 0.7393,-1.4957, 1.0938,-0.4841, 2.9333
09-Sep-2020 11:20:34.486, 0.8380, 0.4135,-0.3348,-0.2127, 0.6802,-1.4953, 1.0981,-0.4976, 2.9266
09-Sep-2020 11:20:34.496, 0.9456, 0.4168,-0.3498,-0.2115, 0.6804,-1.3275, 1.1021,-0.5116, 2.9210
09-Sep-2020 11:20:34.506, 0.9553, 0.4670,-0.3734,-0.0884, 0.7750,-1.1459, 1.1066,-0.5242, 2.9162
09-Sep-2020 11:20:34.517, 0.9202, 0.5207,-0.3378, 0.0557, 0.9393,-1.0597, 1.1118,-0.5348, 2.9112
09-Sep-2020 11:20:34.526, 0.8703, 0.5606,-0.2978, 0.1156, 0.9878,-1.1137, 1.1180,-0.5440, 2.9052
09-Sep-2020 11:20:34.536, 0.8191, 0.5571,-0.2752, 0.0954, 0.9377,-1.2368, 1.1242,-0.5535, 2.8984
09-Sep-2020 11:20:34.546, 0.7843, 0.5272,-0.2549, 0.0599, 0.9322,-1.3926, 1.1297,-0.5642, 2.8912
09-Sep-2020 11:20:34.556, 0.7418, 0.5137,-0.2794, 0.0903, 1.0214,-1.5945, 1.1348,-0.5764, 2.8834
09-Sep-2020 11:20:34.566, 0.7040, 0.5484,-0.2911, 0.1455, 1.1854,-1.8685, 1.1401,-0.5904, 2.8745
09-Sep-2020 11:20:34.576, 0.6548, 0.6157,-0.3410, 0.2222, 1.2085,-2.2043, 1.1456,-0.6066, 2.8635
09-Sep-2020 11:20:34.586, 0.6285, 0.6337,-0.3607, 0.2805, 1.0245,-2.5264, 1.1497,-0.6257, 2.8500
09-Sep-2020 11:20:34.596, 0.7351, 0.6016,-0.3229, 0.2461, 0.7184,-2.6465, 1.1504,-0.6473, 2.8342
09-Sep-2020 11:20:34.606, 0.7837, 0.5461,-0.3208, 0.1941, 0.4563,-2.5865, 1.1475,-0.6702, 2.8178
09-Sep-2020 11:20:34.616, 0.8180, 0.5174,-0.2969, 0.1599, 0.3471,-2.2262, 1.1421,-0.6925, 2.8019
09-Sep-2020 11:20:34.626, 0.7684, 0.5718,-0.3086, 0.1538, 0.4814,-1.9461, 1.1367,-0.7120, 2.7878
09-Sep-2020 11:20:34.636, 0.7545, 0.6478,-0.3057, 0.1699, 0.6438,-1.7760, 1.1330,-0.7289, 2.7751
09-Sep-2020 11:20:34.646, 0.6290, 0.6908,-0.3541, 0.2125, 0.7584,-1.7936, 1.1310,-0.7442, 2.7627
09-Sep-2020 11:20:34.656, 0.6828, 0.6797,-0.3885, 0.2672, 0.8591,-1.7515, 1.1297,-0.7594, 2.7497
09-Sep-2020 11:20:34.666, 0.7204, 0.6315,-0.3683, 0.3160, 1.0118,-1.6130, 1.1288,-0.7739, 2.7361
09-Sep-2020 11:20:34.676, 0.7864, 0.5972,-0.3350, 0.3003, 1.0709,-1.3685, 1.1293,-0.7869, 2.7225
09-Sep-2020 11:20:34.685, 0.7681, 0.5889,-0.3171, 0.2335, 1.0092,-1.1492, 1.1312,-0.7979, 2.7104
09-Sep-2020 11:20:34.695, 0.7356, 0.6148,-0.2868, 0.1486, 0.9376,-1.0788, 1.1340,-0.8073, 2.7004
09-Sep-2020 11:20:34.705, 0.7331, 0.6671,-0.2570, 0.0588, 0.8889,-1.1198, 1.1372,-0.8164, 2.6918
09-Sep-2020 11:20:34.715, 0.7379, 0.7119,-0.2624, 0.0054, 0.8830,-1.1912, 1.1404,-0.8262, 2.6841
09-Sep-2020 11:20:34.726, 0.7515, 0.7665,-0.2680,-0.0087, 0.8674,-1.2448, 1.1437,-0.8368, 2.6767
09-Sep-2020 11:20:34.735, 0.7353, 0.7890,-0.2318,-0.0757, 0.8190,-1.2933, 1.1467,-0.8481, 2.6692
09-Sep-2020 11:20:34.745, 0.7209, 0.7820,-0.2389,-0.1689, 0.6541,-1.3573, 1.1495,-0.8601, 2.6622
09-Sep-2020 11:20:34.755, 0.6935, 0.7713,-0.2415,-0.2882, 0.3911,-1.4458, 1.1513,-0.8730, 2.6561
09-Sep-2020 11:20:34.765, 0.6733, 0.7477,-0.2507,-0.3990, 0.1111,-1.5028, 1.1512,-0.8873, 2.6510
09-Sep-2020 11:20:34.775, 0.6579, 0.7253,-0.2410,-0.4567, 0.0536,-1.4523, 1.1494,-0.9024, 2.6470
09-Sep-2020 11:20:34.785, 0.6118, 0.6948,-0.1881,-0.4592, 0.2342,-1.2922, 1.1477,-0.9173, 2.6441
09-Sep-2020 11:20:34.796, 0.5270, 0.6855,-0.1183,-0.4555, 0.5797,-1.1110, 1.1487,-0.9308, 2.6422
09-Sep-2020 11:20:34.805, 0.4780, 0.7170,-0.1109,-0.4338, 0.9005,-0.9377, 1.1539,-0.9426, 2.6416
09-Sep-2020 11:20:34.815, 0.4847, 0.7868,-0.1634,-0.3981, 0.9908,-0.7818, 1.1629,-0.9528, 2.6419
09-Sep-2020 11:20:34.825, 0.4827, 0.8495,-0.2276,-0.3550, 0.7953,-0.6694, 1.1734,-0.9615, 2.6429
09-Sep-2020 11:20:34.834, 0.5008, 0.8735,-0.2699,-0.2894, 0.4449,-0.5837, 1.1822,-0.9689, 2.6441
09-Sep-2020 11:20:34.844, 0.5261, 0.8831,-0.2675,-0.1965, 0.1460,-0.4829, 1.1873,-0.9752, 2.6449
09-Sep-2020 11:20:34.854, 0.4997, 0.8803,-0.2504,-0.0781,-0.0344,-0.3971, 1.1888,-0.9803, 2.6449
09-Sep-2020 11:20:34.864, 0.4547, 0.8557,-0.2246, 0.0281,-0.1013,-0.3514, 1.1874,-0.9843, 2.6435
09-Sep-2020 11:20:34.874, 0.4988, 0.8474,-0.2321, 0.1692,-0.0660,-0.2705, 1.1840,-0.9873, 2.6406
09-Sep-2020 11:20:34.884, 0.5325, 0.8522,-0.2131, 0.2960, 0.0676,-0.1402, 1.1795,-0.9890, 2.6360
09-Sep-2020 11:20:34.894, 0.4401, 0.8613,-0.2018, 0.4500, 0.2716,-0.0392, 1.1753,-0.9891, 2.6300
09-Sep-2020 11:20:34.904, 0.3456, 0.8212,-0.1533, 0.5636, 0.4544,-0.0157, 1.1715,-0.9877, 2.6222
09-Sep-2020 11:20:34.914, 0.3070, 0.7480,-0.0956, 0.5740, 0.5379,-0.0635, 1.1680,-0.9856, 2.6128
09-Sep-2020 11:20:34.924, 0.4305, 0.7420,-0.0975, 0.4193, 0.4135,-0.1066, 1.1651,-0.9840, 2.6030
09-Sep-2020 11:20:34.934, 0.4743, 0.7993,-0.1410, 0.2896, 0.2559,-0.1940, 1.1627,-0.9832, 2.5953
09-Sep-2020 11:20:34.944, 0.4577, 0.8504,-0.2387, 0.2804, 0.1936,-0.3382, 1.1600,-0.9838, 2.5890
09-Sep-2020 11:20:34.954, 0.5587, 0.9828,-0.4091, 0.6934, 1.6589,-0.3088, 1.1572,-0.9853, 2.5811
09-Sep-2020 11:20:34.964, 0.7009, 0.8354,-0.2786, 0.5638, 2.1952,-0.1954, 1.1620,-0.9854, 2.5683
09-Sep-2020 11:20:34.974, 0.7245, 0.7205,-0.1833, 0.1101, 2.2347,-0.1823, 1.1748,-0.9851, 2.5578
09-Sep-2020 11:20:34.984, 0.6779, 0.8048,-0.2424,-0.2754, 2.0450,-0.2446, 1.1942,-0.9863, 2.5546
09-Sep-2020 11:20:34.994, 0.5777, 0.8339,-0.2112,-0.5432, 1.6669,-0.4828, 1.2168,-0.9895, 2.5575
09-Sep-2020 11:20:35.004, 0.6001, 0.8161,-0.1800,-0.6834, 1.1751,-0.7108, 1.2385,-0.9958, 2.5637
09-Sep-2020 11:20:35.014, 0.6461, 0.8282,-0.1475,-0.6859, 0.8681,-0.8027, 1.2568,-1.0044, 2.5713
09-Sep-2020 11:20:35.024, 0.6107, 0.8634,-0.1299,-0.5720, 0.7735,-0.8614, 1.2719,-1.0140, 2.5789
09-Sep-2020 11:20:35.034, 0.5368, 0.9003,-0.1131,-0.4079, 0.8305,-0.9530, 1.2844,-1.0238, 2.5845
09-Sep-2020 11:20:35.044, 0.4771, 0.9335,-0.0916,-0.2901, 0.9880,-1.0860, 1.2949,-1.0340, 2.5869
09-Sep-2020 11:20:35.054, 0.4628, 0.9400,-0.0895,-0.2713, 1.1228,-1.1778, 1.3046,-1.0451, 2.5868
09-Sep-2020 11:20:35.064, 0.4706, 0.9240,-0.0934,-0.3338, 1.1985,-1.1726, 1.3151,-1.0570, 2.5861
09-Sep-2020 11:20:35.073, 0.4640, 0.8910,-0.1157,-0.4146, 1.2564,-1.0974, 1.3276,-1.0690, 2.5868
09-Sep-2020 11:20:35.084, 0.4604, 0.8733,-0.0891,-0.5370, 1.3691,-0.9730, 1.3429,-1.0804, 2.5899
09-Sep-2020 11:20:35.093, 0.3329, 0.9062,-0.0709,-0.7180, 1.3617,-1.0230, 1.3623,-1.0911, 2.5966
09-Sep-2020 11:20:35.103, 0.3806, 0.9427,-0.0721,-0.9097, 1.0999,-1.1604, 1.3855,-1.1024, 2.6076
09-Sep-2020 11:20:35.113, 0.4265, 1.0328,-0.0797,-0.9091, 0.9634,-1.3344, 1.4101,-1.1152, 2.6228
09-Sep-2020 11:20:35.123, 0.4027, 1.1099,-0.1082,-0.6994, 0.9215,-1.4859, 1.4339,-1.1296, 2.6385
09-Sep-2020 11:20:35.133, 0.4044, 1.1033,-0.1090,-0.3783, 0.9118,-1.5449, 1.4538,-1.1450, 2.6502
09-Sep-2020 11:20:35.143, 0.3241, 1.0538,-0.0224,-0.1244, 0.9515,-1.5462, 1.4675,-1.1606, 2.6553
09-Sep-2020 11:20:35.153, 0.1455, 1.0085, 0.0119, 0.0090, 0.8582,-1.5826, 1.4763,-1.1760, 2.6547
09-Sep-2020 11:20:35.163,-0.2430, 0.8904,-0.0737, 0.3686, 1.2375,-1.9521, 1.4809,-1.1916, 2.6504
09-Sep-2020 11:20:35.173,-0.2564, 0.6920, 0.3360, 0.5337, 2.1326,-2.8305, 1.4797,-1.2112, 2.6348
09-Sep-2020 11:20:35.183,-0.0358, 0.8171, 0.6024,-0.0349, 1.8427,-3.1557, 1.4795,-1.2384, 2.6127
09-Sep-2020 11:20:35.193, 0.3369, 0.7822, 0.1683,-0.2783, 1.6285,-2.9970, 1.4900,-1.2693, 2.6044
09-Sep-2020 11:20:35.203, 0.8194, 0.8567,-0.3393,-0.2156, 1.0969,-2.3465, 1.5072,-1.2988, 2.6058
09-Sep-2020 11:20:35.213, 0.7286, 1.0810,-0.2598,-0.2103, 0.8887,-1.6822, 1.5217,-1.3222, 2.6092
09-Sep-2020 11:20:35.223, 0.5756, 1.0860,-0.2289,-0.2283, 0.8077,-1.0793, 1.5362,-1.3389, 2.6149
09-Sep-2020 11:20:35.233, 0.4928, 0.9723,-0.1614,-0.2547, 0.6811,-0.6100, 1.5526,-1.3498, 2.6235
09-Sep-2020 11:20:35.243, 0.4221, 0.8495,-0.0353,-0.3480, 0.4974,-0.3975, 1.5706,-1.3560, 2.6350
09-Sep-2020 11:20:35.252, 0.4238, 0.7948, 0.0323,-0.4819, 0.2995,-0.3653, 1.5917,-1.3599, 2.6516
09-Sep-2020 11:20:35.262, 0.4792, 0.7829, 0.0438,-0.6015, 0.0868,-0.4304, 1.6175,-1.3633, 2.6750
09-Sep-2020 11:20:35.272, 0.4157, 0.8003, 0.0327,-0.6653,-0.0810,-0.6607, 1.6480,-1.3673, 2.7052
09-Sep-2020 11:20:35.282, 0.3487, 0.8382, 0.0489,-0.6788,-0.2413,-1.0038, 1.6822,-1.3732, 2.7410
09-Sep-2020 11:20:35.293, 0.2954, 0.8237, 0.0561,-0.6830,-0.3112,-1.3134, 1.7206,-1.3822, 2.7824
09-Sep-2020 11:20:35.302, 0.3105, 0.8328,-0.0105,-0.6139,-0.5102,-1.4415, 1.7650,-1.3937, 2.8309
09-Sep-2020 11:20:35.312, 0.3624, 0.8445, 0.0262,-0.4936,-0.5437,-1.3395, 1.8121,-1.4062, 2.8837
09-Sep-2020 11:20:35.322, 0.3707, 0.8850,-0.0028,-0.2994,-0.4422,-1.0631, 1.8574,-1.4177, 2.9349
09-Sep-2020 11:20:35.332, 0.3869, 0.9133, 0.0191,-0.1628,-0.4123,-0.7025, 1.8928,-1.4268, 2.9752
09-Sep-2020 11:20:35.343, 0.3719, 0.9042, 0.0826,-0.2372,-0.3769,-0.3822, 1.9161,-1.4328, 3.0030
09-Sep-2020 11:20:35.352, 0.3448, 0.8658, 0.0776,-0.4366,-0.3367,-0.1632, 1.9384,-1.4355, 3.0293
09-Sep-2020 11:20:35.362, 0.3318, 0.8538, 0.0342,-0.5691,-0.3182, 0.0179, 1.9683,-1.4354, 3.0629
09-Sep-2020 11:20:35.372, 0.2709, 0.9056, 0.0135,-0.5756,-0.4482, 0.1532, 2.0013,-1.4330, 3.0995
09-Sep-2020 11:20:35.382, 0.2511, 0.9670, 0.0246,-0.5299,-0.6532, 0.2789, 2.0283,-1.4291, 3.1313
09-Sep-2020 11:20:35.392, 0.2278, 1.0358, 0.0205,-0.4862,-0.8868, 0.3812, 2.0452,-1.4242,-3.1282
09-Sep-2020 11:20:35.402, 0.1888, 1.1102, 0.0575,-0.4558,-1.0406, 0.4193, 2.0531,-1.4186,-3.1114
09-Sep-2020 11:20:35.412, 0.0962, 1.1971, 0.1291,-0.4417,-1.0926, 0.3633, 2.0557,-1.4128,-3.0983
09-Sep-2020 11:20:35.422, 0.0103, 1.2325, 0.2400,-0.4768,-0.9553, 0.2139, 2.0585,-1.4075,-3.0845
09-Sep-2020 11:20:35.433, 0.0315, 1.1234, 0.2571,-0.5836,-0.7286, 0.2016, 2.0677,-1.4033,-3.0656
09-Sep-2020 11:20:35.442, 0.1229, 0.9234, 0.1310,-0.6804,-0.6969, 0.4100, 2.0836,-1.3985,-3.0421
09-Sep-2020 11:20:35.452, 0.1637, 0.8290, 0.0162,-0.6535,-0.8325, 0.6974, 2.0973,-1.3916,-3.0209
09-Sep-2020 11:20:35.461, 0.1995, 0.8114,-0.0097,-0.5419,-0.9945, 0.9012, 2.0999,-1.3824,-3.0098
09-Sep-2020 11:20:35.471, 0.2330, 0.7654, 0.0015,-0.3571,-0.9867, 1.0563, 2.0905,-1.3719,-3.0093
09-Sep-2020 11:20:35.482, 0.2167, 0.7175,-0.0192,-0.1018,-0.9148, 1.1766, 2.0705,-1.3610,-3.0198
09-Sep-2020 11:20:35.491, 0.1709, 0.6821,-0.0412, 0.1637,-0.8929, 1.2247, 2.0403,-1.3501,-3.0414
09-Sep-2020 11:20:35.502, 0.1227, 0.6560,-0.0454, 0.3808,-0.9164, 1.1784, 2.0018,-1.3399,-3.0717
09-Sep-2020 11:20:35.511, 0.0898, 0.6337,-0.0245, 0.5354,-0.9364, 1.0488, 1.9587,-1.3306,-3.1066
09-Sep-2020 11:20:35.521, 0.0646, 0.6047, 0.0308, 0.6252,-0.7876, 0.8744, 1.9146,-1.3227, 3.1405
09-Sep-2020 11:20:35.532, 0.0442, 0.5881, 0.0741, 0.6751,-0.4723, 0.6801, 1.8729,-1.3164, 3.1056
09-Sep-2020 11:20:35.541, 0.0301, 0.5949, 0.0790, 0.6657,-0.2025, 0.4209, 1.8364,-1.3117, 3.0727
09-Sep-2020 11:20:35.551, 0.0279, 0.5957, 0.0777, 0.5723,-0.0424, 0.1092, 1.8063,-1.3093, 3.0437
09-Sep-2020 11:20:35.561, 0.0275, 0.5970, 0.0872, 0.3992, 0.0349,-0.2215, 1.7842,-1.3094, 3.0213
09-Sep-2020 11:20:35.571, 0.0336, 0.6002, 0.0938, 0.1646, 0.0325,-0.5387, 1.7716,-1.3123, 3.0079
09-Sep-2020 11:20:35.581, 0.0351, 0.6216, 0.1125,-0.1126,-0.1120,-0.8680, 1.7696,-1.3178, 3.0057
09-Sep-2020 11:20:35.591, 0.0017, 0.9061, 0.5088,-0.9078, 0.1812,-1.4325, 1.7818,-1.3260, 3.0190
09-Sep-2020 11:20:35.601, 0.0161, 0.7325, 0.5459,-1.6957, 0.0396,-1.8261, 1.8289,-1.3375, 3.0667
09-Sep-2020 11:20:35.611, 0.0387, 0.6188, 0.5578,-2.4642,-0.1731,-2.0509, 1.9203,-1.3497,-3.1227
09-Sep-2020 11:20:35.621, 0.0279, 0.4084, 0.3144,-2.9174,-0.6602,-2.2137, 2.0565,-1.3584,-2.9812
09-Sep-2020 11:20:35.631,-0.0023, 0.3238, 0.2957,-3.3801,-0.5595,-2.4634, 2.2207,-1.3613,-2.8072
09-Sep-2020 11:20:35.641, 0.0300, 0.2631,-0.0010,-3.4082,-0.8507,-2.6079, 2.4062,-1.3568,-2.6116
09-Sep-2020 11:20:35.651, 0.1005, 0.3534,-0.4027,-2.3010,-2.1721,-2.3697, 2.5781,-1.3458,-2.4261
09-Sep-2020 11:20:35.661, 0.0930, 0.4375,-0.2925,-0.9830,-3.4598,-2.1305, 2.6921,-1.3372,-2.2869
09-Sep-2020 11:20:35.671, 0.0295, 1.1185,-0.1016,-0.1669,-4.1158,-2.1099, 2.7565,-1.3366,-2.1857
09-Sep-2020 11:20:35.681, 0.1948, 1.9547, 0.0282, 0.2953,-3.9582,-2.1673, 2.8023,-1.3423,-2.0971
09-Sep-2020 11:20:35.691, 0.6617, 3.4300, 0.4237, 0.1801,-2.0878,-1.4878, 2.8479,-1.3512,-2.0112
09-Sep-2020 11:20:35.703, 0.8941, 4.0599, 0.1750, 0.3690, 0.2823,-0.4031, 2.8878,-1.3573,-1.9493
09-Sep-2020 11:20:35.711, 0.7893, 3.4420,-0.1254, 0.8564, 1.4508, 0.6819, 2.9026,-1.3619,-1.9361
09-Sep-2020 11:20:35.722, 0.2262, 2.7310, 0.0090, 1.1429, 2.2327, 0.9870, 2.8781,-1.3683,-1.9761
09-Sep-2020 11:20:35.731, 0.0054, 1.7000,-0.0490, 1.4259, 2.4197, 0.9168, 2.8374,-1.3766,-2.0398
09-Sep-2020 11:20:35.742,-0.0831, 1.0165,-0.0691, 1.7581, 2.3922, 0.7362, 2.7922,-1.3872,-2.1102
09-Sep-2020 11:20:35.750,-0.1695, 0.6053, 0.0928, 2.0690, 2.3448, 0.4737, 2.7418,-1.4008,-2.1855
09-Sep-2020 11:20:35.760,-0.2445, 0.3847, 0.5054, 1.9091, 2.2754, 0.1474, 2.6874,-1.4173,-2.2644
09-Sep-2020 11:20:35.770,-0.2566, 0.3633, 0.7929, 1.2633, 2.1875,-0.1541, 2.6420,-1.4332,-2.3331
09-Sep-2020 11:20:35.780,-0.1777, 0.6293, 0.6956, 0.3550, 1.8268,-0.4073, 2.6275,-1.4448,-2.3696
09-Sep-2020 11:20:35.790,-0.0808, 0.9236, 0.3793,-0.6109, 0.5437,-0.8209, 2.6611,-1.4497,-2.3532
09-Sep-2020 11:20:35.800, 0.0393, 1.0418, 0.2120,-1.0607,-0.6495,-1.0577, 2.7448,-1.4480,-2.2745
09-Sep-2020 11:20:35.810, 0.1313, 1.1245, 0.1228,-1.1300,-1.5895,-1.1337, 2.8429,-1.4418,-2.1692
09-Sep-2020 11:20:35.820, 0.1479, 1.1568, 0.1339,-1.0066,-1.9904,-1.1260, 2.9292,-1.4339,-2.0665
09-Sep-2020 11:20:35.830, 0.1233, 1.1486, 0.1688,-0.8362,-1.9029,-1.0756, 2.9992,-1.4260,-1.9761
09-Sep-2020 11:20:35.840, 0.0922, 1.0939, 0.1988,-0.6597,-1.4837,-0.9814, 3.0574,-1.4190,-1.8983
09-Sep-2020 11:20:35.850, 0.0505, 1.0200, 0.2052,-0.4743,-0.8896,-0.8408, 3.1071,-1.4131,-1.8332
09-Sep-2020 11:20:35.860, 0.0070, 0.9660, 0.1760,-0.3044,-0.3076,-0.6778,-3.1334,-1.4085,-1.7809
09-Sep-2020 11:20:35.870,-0.0271, 0.9365, 0.1255,-0.1915, 0.1058,-0.5481,-3.0966,-1.4053,-1.7404
09-Sep-2020 11:20:35.880,-0.0466, 0.9073, 0.0802,-0.1093, 0.3205,-0.4603,-3.0643,-1.4031,-1.7086
09-Sep-2020 11:20:35.890,-0.0560, 0.8982, 0.0698,-0.0450, 0.4427,-0.3559,-3.0355,-1.4016,-1.6826
09-Sep-2020 11:20:35.899,-0.0581, 0.8991, 0.0665, 0.0282, 0.4747,-0.2552,-3.0112,-1.4008,-1.6623
09-Sep-2020 11:20:35.909,-0.0471, 0.9122, 0.0990, 0.1439, 0.5203,-0.1473,-2.9920,-1.4008,-1.6477
09-Sep-2020 11:20:35.919,-0.0304, 0.9269, 0.1372, 0.2784, 0.6088,-0.0544,-2.9774,-1.4020,-1.6381
09-Sep-2020 11:20:35.929,-0.0422, 0.9492, 0.2073, 0.4513, 0.8784, 0.0637,-2.9658,-1.4047,-1.6328
09-Sep-2020 11:20:35.940,-0.0498, 1.0612, 0.2490, 0.3527, 1.0272, 0.0239,-2.9560,-1.4091,-1.6315
09-Sep-2020 11:20:35.949,-0.0294, 1.1174, 0.2323, 0.1555, 1.0145,-0.0844,-2.9434,-1.4126,-1.6290
09-Sep-2020 11:20:35.959,-0.0136, 1.1329, 0.2161,-0.0296, 0.7522,-0.1579,-2.9269,-1.4140,-1.6223
09-Sep-2020 11:20:35.969,-0.0427, 1.1635, 0.2760,-0.1923, 0.3949,-0.2466,-2.9105,-1.4134,-1.6133
09-Sep-2020 11:20:35.979,-0.0452, 1.1462, 0.3365,-0.2358, 0.1435,-0.2725,-2.8951,-1.4111,-1.6017
09-Sep-2020 11:20:35.989,-0.0623, 1.0889, 0.3560,-0.1834,-0.1257,-0.1741,-2.8820,-1.4083,-1.5899
09-Sep-2020 11:20:35.999,-0.1074, 1.0583, 0.3748,-0.1981,-0.4597,-0.0929,-2.8764,-1.4061,-1.5828
09-Sep-2020 11:20:36.009,-0.1186, 1.0269, 0.3993,-0.2955,-0.7755,-0.0354,-2.8791,-1.4039,-1.5809
09-Sep-2020 11:20:36.019,-0.1337, 0.9981, 0.4053,-0.4068,-1.0024, 0.0050,-2.8895,-1.4010,-1.5837
09-Sep-2020 11:20:36.029,-0.1537, 0.9864, 0.3840,-0.4788,-1.1599, 0.0031,-2.9055,-1.3972,-1.5899
09-Sep-2020 11:20:36.039,-0.1599, 0.9949, 0.3443,-0.5205,-1.2842,-0.0485,-2.9234,-1.3926,-1.5963
09-Sep-2020 11:20:36.049,-0.1483, 1.0080, 0.3131,-0.5362,-1.4132,-0.1019,-2.9398,-1.3875,-1.6000
09-Sep-2020 11:20:36.059,-0.1454, 1.0263, 0.2963,-0.5175,-1.5314,-0.1367,-2.9544,-1.3822,-1.6006
09-Sep-2020 11:20:36.069,-0.1337, 1.0365, 0.2879,-0.4532,-1.6000,-0.1443,-2.9679,-1.3769,-1.5989
09-Sep-2020 11:20:36.079,-0.1200, 1.0293, 0.2792,-0.3819,-1.6193,-0.1401,-2.9809,-1.3723,-1.5959
09-Sep-2020 11:20:36.089,-0.1085, 1.0135, 0.2287,-0.3041,-1.6216,-0.1660,-2.9934,-1.3684,-1.5921
09-Sep-2020 11:20:36.099,-0.0940, 0.9983, 0.1201,-0.1864,-1.6665,-0.2351,-3.0038,-1.3652,-1.5863
09-Sep-2020 11:20:36.108,-0.0559, 0.9650, 0.0168, 0.0131,-1.7449,-0.2750,-3.0109,-1.3632,-1.5766
09-Sep-2020 11:20:36.118,-0.0138, 0.9236,-0.0166, 0.1969,-1.7807,-0.2390,-3.0159,-1.3630,-1.5639
09-Sep-2020 11:20:36.128, 0.0118, 0.8963,-0.0208, 0.3088,-1.7403,-0.1536,-3.0217,-1.3646,-1.5518
09-Sep-2020 11:20:36.139, 0.0531, 0.8757,-0.0114, 0.3484,-1.6113,-0.0218,-3.0304,-1.3675,-1.5431
09-Sep-2020 11:20:36.149, 0.0812, 0.8577, 0.0019, 0.3493,-1.3316, 0.1129,-3.0440,-1.3709,-1.5406
09-Sep-2020 11:20:36.158, 0.1217, 0.8455, 0.0002, 0.3873,-0.9695, 0.2355,-3.0615,-1.3746,-1.5450
09-Sep-2020 11:20:36.168, 0.1643, 0.8493, 0.0088, 0.4898,-0.6295, 0.3456,-3.0819,-1.3786,-1.5560
09-Sep-2020 11:20:36.178, 0.2035, 0.8618, 0.0580, 0.6401,-0.4078, 0.4416,-3.1053,-1.3838,-1.5733
09-Sep-2020 11:20:36.188, 0.2278, 0.8786, 0.1920, 0.7970,-0.3155, 0.4898,-3.1326,-1.3903,-1.5968
09-Sep-2020 11:20:36.198, 0.2502, 0.9004, 0.4379, 0.8497,-0.3388, 0.4816, 3.1196,-1.3982,-1.6250
09-Sep-2020 11:20:36.208, 0.1987, 0.9369, 0.6254, 0.6154,-0.7607, 0.3689, 3.0860,-1.4063,-1.6555
09-Sep-2020 11:20:36.221, 0.0269, 0.9549, 0.5784, 0.1363,-1.5861, 0.0950, 3.0534,-1.4120,-1.6805
09-Sep-2020 11:20:36.228,-0.0186, 0.9182, 0.4344,-0.3184,-2.2427,-0.0775, 3.0300,-1.4133,-1.6884
09-Sep-2020 11:20:36.238,-0.0150, 0.9242, 0.3105,-0.5513,-2.3970,-0.1446, 3.0141,-1.4104,-1.6822
09-Sep-2020 11:20:36.248,-0.0285, 0.9292, 0.2280,-0.5852,-2.0392,-0.1626, 3.0029,-1.4053,-1.6697
09-Sep-2020 11:20:36.258,-0.0423, 0.9189, 0.1572,-0.5150,-1.3364,-0.1726, 2.9966,-1.3999,-1.6557
09-Sep-2020 11:20:36.268,-0.0458, 0.8935, 0.0860,-0.4309,-0.5397,-0.1889, 2.9968,-1.3951,-1.6420
09-Sep-2020 11:20:36.278,-0.0413, 0.8561, 0.0218,-0.3422, 0.1356,-0.2286, 3.0048,-1.3912,-1.6284
09-Sep-2020 11:20:36.288,-0.0233, 0.8355,-0.0062,-0.2509, 0.6178,-0.2758, 3.0204,-1.3881,-1.6138
09-Sep-2020 11:20:36.298, 0.0007, 0.8507,-0.0040,-0.1449, 0.8870,-0.3190, 3.0421,-1.3860,-1.5978
09-Sep-2020 11:20:36.308, 0.0322, 0.8714, 0.0178,-0.0199, 0.9724,-0.3501, 3.0679,-1.3848,-1.5804
09-Sep-2020 11:20:36.319, 0.0640, 0.8884, 0.0505, 0.1108, 0.9041,-0.3653, 3.0956,-1.3849,-1.5620
09-Sep-2020 11:20:36.327, 0.0852, 0.9099, 0.0908, 0.2234, 0.7137,-0.3756, 3.1233,-1.3861,-1.5429
09-Sep-2020 11:20:36.337, 0.0979, 0.9273, 0.1238, 0.2915, 0.4763,-0.3401,-3.1334,-1.3884,-1.5231
09-Sep-2020 11:20:36.347, 0.1004, 0.9357, 0.1409, 0.3308, 0.2050,-0.3103,-3.1102,-1.3912,-1.5043
09-Sep-2020 11:20:36.359, 0.1219, 0.9395, 0.1518, 0.3629,-0.0140,-0.3151,-3.0904,-1.3944,-1.4863
09-Sep-2020 11:20:36.369, 0.1629, 0.9367, 0.1698, 0.4312,-0.0878,-0.2958,-3.0720,-1.3979,-1.4675
09-Sep-2020 11:20:36.377, 0.1958, 0.9312, 0.1944, 0.4887,-0.0189,-0.2416,-3.0544,-1.4020,-1.4488
09-Sep-2020 11:20:36.387, 0.2172, 0.9508, 0.2036, 0.5596, 0.1558,-0.1855,-3.0379,-1.4067,-1.4320
09-Sep-2020 11:20:36.397, 0.2146, 0.9764, 0.1979, 0.6059, 0.3277,-0.1526,-3.0216,-1.4120,-1.4171
09-Sep-2020 11:20:36.407, 0.2134, 0.9559, 0.1990, 0.6140, 0.4373,-0.1614,-3.0042,-1.4178,-1.4027
09-Sep-2020 11:20:36.417, 0.2149, 0.9301, 0.2224, 0.5795, 0.5678,-0.1606,-2.9839,-1.4237,-1.3866
09-Sep-2020 11:20:36.427, 0.2039, 0.9246, 0.2334, 0.5335, 0.7060,-0.1593,-2.9613,-1.4291,-1.3694
09-Sep-2020 11:20:36.437, 0.2008, 0.9209, 0.2413, 0.4880, 0.8167,-0.1473,-2.9366,-1.4341,-1.3515
09-Sep-2020 11:20:36.447, 0.1945, 0.9200, 0.2518, 0.4114, 0.8987,-0.1220,-2.9108,-1.4385,-1.3337
09-Sep-2020 11:20:36.457, 0.1739, 0.9136, 0.2446, 0.3128, 0.9372,-0.1080,-2.8858,-1.4423,-1.3175
09-Sep-2020 11:20:36.467, 0.1441, 0.9139, 0.2261, 0.2206, 0.9322,-0.0942,-2.8626,-1.4450,-1.3035
09-Sep-2020 11:20:36.477, 0.1222, 0.9061, 0.2228, 0.1327, 0.9152,-0.1068,-2.8416,-1.4469,-1.2916
09-Sep-2020 11:20:36.487, 0.1200, 0.8828, 0.2171, 0.0812, 0.8858,-0.0810,-2.8217,-1.4479,-1.2808
09-Sep-2020 11:20:36.496, 0.1075, 0.9218, 0.2210, 0.0562, 0.8237,-0.0242,-2.8053,-1.4485,-1.2730
09-Sep-2020 11:20:36.507, 0.0912, 0.9805, 0.2153, 0.0017, 0.6949,-0.0216,-2.7940,-1.4490,-1.2699
09-Sep-2020 11:20:36.518, 0.0795, 1.0101, 0.1940,-0.0424, 0.5542,-0.0290,-2.7858,-1.4490,-1.2686
09-Sep-2020 11:20:36.526, 0.0648, 1.0322, 0.1593,-0.0167, 0.4453,-0.0133,-2.7798,-1.4486,-1.2681
09-Sep-2020 11:20:36.537, 0.0416, 1.0713, 0.1201, 0.0787, 0.3682, 0.0114,-2.7752,-1.4485,-1.2680
09-Sep-2020 11:20:36.546, 0.0115, 1.1244, 0.0968, 0.1937, 0.3251, 0.0166,-2.7704,-1.4494,-1.2669
09-Sep-2020 11:20:36.556,-0.0202, 1.1776, 0.0985, 0.3190, 0.3272, 0.0019,-2.7630,-1.4513,-1.2626
09-Sep-2020 11:20:36.567,-0.0524, 1.2063, 0.1259, 0.4314, 0.3664,-0.0467,-2.7501,-1.4543,-1.2530
09-Sep-2020 11:20:36.576,-0.0758, 1.1902, 0.1805, 0.4955, 0.4374,-0.1119,-2.7287,-1.4581,-1.2351
09-Sep-2020 11:20:36.586,-0.0880, 1.1404, 0.2445, 0.4670, 0.5137,-0.1897,-2.6975,-1.4621,-1.2081
09-Sep-2020 11:20:36.596,-0.1015, 1.0834, 0.2905, 0.3429, 0.5368,-0.2706,-2.6580,-1.4654,-1.1735
09-Sep-2020 11:20:36.606,-0.1052, 1.0310, 0.2889, 0.2040, 0.4479,-0.3256,-2.6151,-1.4671,-1.1357
09-Sep-2020 11:20:36.616,-0.0848, 1.0108, 0.2487, 0.1048, 0.3438,-0.3118,-2.5746,-1.4673,-1.0994
09-Sep-2020 11:20:36.626,-0.0530, 1.0101, 0.1811, 0.0637, 0.3258,-0.2392,-2.5413,-1.4666,-1.0694
09-Sep-2020 11:20:36.636,-0.0137, 0.9933, 0.1097, 0.0416, 0.4079,-0.1435,-2.5164,-1.4658,-1.0476
09-Sep-2020 11:20:36.646, 0.0016, 0.9840, 0.0447, 0.0084, 0.5317,-0.0774,-2.4994,-1.4653,-1.0346
09-Sep-2020 11:20:36.656, 0.0065, 0.9986,-0.0287,-0.0236, 0.5938,-0.0757,-2.4878,-1.4650,-1.0283
09-Sep-2020 11:20:36.666, 0.0269, 0.9863,-0.0679,-0.0570, 0.6347,-0.1016,-2.4780,-1.4644,-1.0243
09-Sep-2020 11:20:36.676, 0.0445, 0.9271,-0.0695,-0.0667, 0.7223,-0.1209,-2.4678,-1.4634,-1.0204
09-Sep-2020 11:20:36.686, 0.0618, 0.8573,-0.0495,-0.0301, 0.8867,-0.0853,-2.4561,-1.4622,-1.0160
09-Sep-2020 11:20:36.696, 0.0684, 0.8458,-0.0474, 0.0393, 1.0347,-0.0193,-2.4433,-1.4616,-1.0119
09-Sep-2020 11:20:36.706, 0.0578, 0.8765,-0.0670, 0.1533, 1.0527, 0.0465,-2.4297,-1.4618,-1.0085
09-Sep-2020 11:20:36.716, 0.0293, 0.9087,-0.0651, 0.3055, 0.9568, 0.0933,-2.4133,-1.4634,-1.0025
09-Sep-2020 11:20:36.726,-0.0327, 0.9517,-0.0141, 0.4580, 0.8083, 0.0727,-2.3908,-1.4663,-0.9894
09-Sep-2020 11:20:36.736,-0.0934, 0.9840, 0.0910, 0.5230, 0.7155,-0.0144,-2.3572,-1.4701,-0.9637
09-Sep-2020 11:20:36.745,-0.1337, 0.9861, 0.1887, 0.4359, 0.7254,-0.1198,-2.3121,-1.4736,-0.9255
09-Sep-2020 11:20:36.755,-0.1331, 0.9702, 0.2032, 0.2549, 0.7984,-0.1882,-2.2635,-1.4756,-0.8841
09-Sep-2020 11:20:36.765,-0.0975, 0.9654, 0.1448, 0.0685, 0.8828,-0.1873,-2.2231,-1.4758,-0.8514
09-Sep-2020 11:20:36.775,-0.0594, 0.9808, 0.0435,-0.0525, 0.9014,-0.1273,-2.1972,-1.4749,-0.8342
09-Sep-2020 11:20:36.785,-0.0385, 1.0209,-0.0468,-0.0835, 0.8449,-0.0624,-2.1847,-1.4736,-0.8306
09-Sep-2020 11:20:36.795,-0.0397, 1.0661,-0.1056,-0.0621, 0.7186,-0.0086,-2.1794,-1.4727,-0.8336
09-Sep-2020 11:20:36.805,-0.0519, 1.0986,-0.1337,-0.0571, 0.5661, 0.0222,-2.1770,-1.4724,-0.8383
09-Sep-2020 11:20:36.815,-0.0685, 1.1220,-0.1550,-0.0437, 0.4082, 0.0659,-2.1774,-1.4723,-0.8444
09-Sep-2020 11:20:36.825,-0.0947, 1.1383,-0.1485,-0.0201, 0.2747, 0.1004,-2.1808,-1.4727,-0.8519
09-Sep-2020 11:20:36.835,-0.1218, 1.1317,-0.1224, 0.0169, 0.1946, 0.1082,-2.1854,-1.4735,-0.8593
09-Sep-2020 11:20:36.845,-0.1458, 1.1033,-0.0854, 0.0633, 0.1551, 0.1062,-2.1884,-1.4745,-0.8643
09-Sep-2020 11:20:36.855,-0.1717, 1.0706,-0.0305, 0.0973, 0.1596, 0.0921,-2.1880,-1.4758,-0.8654
09-Sep-2020 11:20:36.865,-0.2088, 1.0434, 0.0325, 0.1126, 0.2281, 0.0530,-2.1838,-1.4772,-0.8628
09-Sep-2020 11:20:36.875,-0.2334, 1.0241, 0.0743, 0.1152, 0.3479,-0.0017,-2.1750,-1.4784,-0.8563
09-Sep-2020 11:20:36.885,-0.2400, 1.0101, 0.0721, 0.1141, 0.4647,-0.0495,-2.1614,-1.4791,-0.8462
09-Sep-2020 11:20:36.895,-0.2281, 0.9974, 0.0488, 0.1098, 0.5368,-0.0815,-2.1437,-1.4794,-0.8330
09-Sep-2020 11:20:36.905,-0.2008, 0.9925, 0.0148, 0.0934, 0.5329,-0.0885,-2.1239,-1.4794,-0.8185
09-Sep-2020 11:20:36.915,-0.1701, 0.9869,-0.0215, 0.0711, 0.4640,-0.0671,-2.1053,-1.4792,-0.8050
09-Sep-2020 11:20:36.925,-0.1354, 0.9687,-0.0404, 0.0459, 0.3756,-0.0107,-2.0906,-1.4791,-0.7949
09-Sep-2020 11:20:36.935,-0.1070, 0.9931,-0.0510, 0.0094, 0.2624, 0.0303,-2.0820,-1.4793,-0.7900
09-Sep-2020 11:20:36.945,-0.0764, 1.0093,-0.0385,-0.0098, 0.1825, 0.0595,-2.0800,-1.4797,-0.7906
09-Sep-2020 11:20:36.955,-0.0558, 1.0194,-0.0177,-0.0140, 0.1490, 0.0600,-2.0821,-1.4802,-0.7946
09-Sep-2020 11:20:36.965,-0.0338, 1.0127,-0.0052,-0.0017, 0.1264, 0.0664,-2.0853,-1.4807,-0.7993
09-Sep-2020 11:20:36.975,-0.0247, 0.9880, 0.0156, 0.0376, 0.1368, 0.0645,-2.0877,-1.4814,-0.8029
09-Sep-2020 11:20:36.984,-0.0248, 0.9670, 0.0397, 0.0672, 0.1703, 0.0468,-2.0863,-1.4822,-0.8030
09-Sep-2020 11:20:36.994,-0.0236, 0.9568, 0.0605, 0.0987, 0.2073, 0.0331,-2.0806,-1.4830,-0.7989
09-Sep-2020 11:20:37.004,-0.0327, 0.9623, 0.0788, 0.0990, 0.2439, 0.0097,-2.0706,-1.4838,-0.7910
09-Sep-2020 11:20:37.014,-0.0427, 0.9821, 0.0865, 0.0745, 0.2670,-0.0271,-2.0589,-1.4844,-0.7816
09-Sep-2020 11:20:37.024,-0.0457, 1.0031, 0.0913, 0.0418, 0.2954,-0.0643,-2.0473,-1.4846,-0.7727
09-Sep-2020 11:20:37.034,-0.0486, 1.0174, 0.0824, 0.0118, 0.3148,-0.0855,-2.0369,-1.4843,-0.7651
09-Sep-2020 11:20:37.044,-0.0508, 1.0196, 0.0705, 0.0018, 0.2814,-0.0822,-2.0283,-1.4837,-0.7596
09-Sep-2020 11:20:37.054,-0.0499, 1.0133, 0.0613, 0.0042, 0.2403,-0.0673,-2.0213,-1.4831,-0.7553
09-Sep-2020 11:20:37.064,-0.0466, 1.0178, 0.0549, 0.0039, 0.2033,-0.0445,-2.0153,-1.4826,-0.7518
09-Sep-2020 11:20:37.074,-0.0353, 1.0182, 0.0410, 0.0053, 0.1668,-0.0176,-2.0107,-1.4823,-0.7491
09-Sep-2020 11:20:37.084,-0.0219, 1.0107, 0.0378, 0.0117, 0.1386, 0.0254,-2.0080,-1.4823,-0.7482
09-Sep-2020 11:20:37.094,-0.0134, 1.0145, 0.0408,-0.0043, 0.1342, 0.0509,-2.0077,-1.4827,-0.7492
09-Sep-2020 11:20:37.104,-0.0172, 1.0273, 0.0425,-0.0167, 0.1407, 0.0556,-2.0101,-1.4833,-0.7530
09-Sep-2020 11:20:37.114,-0.0321, 1.0284, 0.0478,-0.0243, 0.1484, 0.0457,-2.0142,-1.4838,-0.7584
09-Sep-2020 11:20:37.124,-0.0625, 1.0197, 0.0540,-0.0142, 0.1295, 0.0479,-2.0184,-1.4842,-0.7641
09-Sep-2020 11:20:37.134,-0.0993, 1.0098, 0.0590,-0.0000, 0.0568, 0.0475,-2.0218,-1.4847,-0.7688
09-Sep-2020 11:20:37.143,-0.1245, 0.9963, 0.0671, 0.0242,-0.0218, 0.0515,-2.0241,-1.4852,-0.7717
09-Sep-2020 11:20:37.153,-0.1337, 0.9866, 0.0712, 0.0333,-0.0909, 0.0448,-2.0250,-1.4859,-0.7723
09-Sep-2020 11:20:37.163,-0.1302, 0.9727, 0.0677, 0.0163,-0.1718, 0.0152,-2.0251,-1.4865,-0.7715
09-Sep-2020 11:20:37.173,-0.1239, 0.9649, 0.0580, 0.0159,-0.2543,-0.0224,-2.0260,-1.4869,-0.7706
09-Sep-2020 11:20:37.184,-0.1201, 0.9679, 0.0539, 0.0272,-0.3241,-0.0352,-2.0262,-1.4869,-0.7683
09-Sep-2020 11:20:37.193,-0.1253, 0.9830, 0.0584, 0.0123,-0.3604,-0.0507,-2.0253,-1.4869,-0.7643
09-Sep-2020 11:20:37.203,-0.1287, 1.0169, 0.0607,-0.0387,-0.3770,-0.0792,-2.0255,-1.4866,-0.7608
09-Sep-2020 11:20:37.213,-0.1272, 1.0433, 0.0697,-0.1239,-0.3467,-0.1006,-2.0298,-1.4859,-0.7614
09-Sep-2020 11:20:37.223,-0.1160, 1.0439, 0.0576,-0.1966,-0.3132,-0.0968,-2.0411,-1.4845,-0.7693
09-Sep-2020 11:20:37.234,-0.1068, 1.0271, 0.0305,-0.2394,-0.3230,-0.0908,-2.0589,-1.4828,-0.7840
09-Sep-2020 11:20:37.243,-0.0844, 1.0172, 0.0113,-0.2678,-0.3771,-0.1095,-2.0806,-1.4809,-0.8025
09-Sep-2020 11:20:37.253,-0.0604, 1.0037,-0.0084,-0.2579,-0.4099,-0.1285,-2.1034,-1.4786,-0.8217
09-Sep-2020 11:20:37.263,-0.0377, 1.0181,-0.0309,-0.2223,-0.4276,-0.1410,-2.1237,-1.4762,-0.8379
09-Sep-2020 11:20:37.273,-0.0118, 1.0499,-0.0399,-0.2077,-0.4299,-0.1422,-2.1399,-1.4739,-0.8500
09-Sep-2020 11:20:37.283, 0.0003, 1.0483,-0.0342,-0.1948,-0.4058,-0.1184,-2.1541,-1.4717,-0.8599
09-Sep-2020 11:20:37.293, 0.0062, 1.0277,-0.0332,-0.1607,-0.3680,-0.1031,-2.1677,-1.4697,-0.8695
09-Sep-2020 11:20:37.303, 0.0129, 0.9817,-0.0439,-0.0654,-0.3743,-0.0731,-2.1785,-1.4681,-0.8767
09-Sep-2020 11:20:37.313, 0.0106, 0.9540,-0.0404, 0.0294,-0.4347,-0.0164,-2.1837,-1.4672,-0.8781
09-Sep-2020 11:20:37.323,-0.0012, 0.9560,-0.0041, 0.1050,-0.3954,-0.0006,-2.1846,-1.4673,-0.8748
09-Sep-2020 11:20:37.333,-0.0020, 0.9695, 0.0235, 0.1574,-0.3100, 0.0055,-2.1804,-1.4679,-0.8666
09-Sep-2020 11:20:37.343, 0.0056, 0.9765, 0.0495, 0.1607,-0.2133, 0.0210,-2.1717,-1.4690,-0.8547
09-Sep-2020 11:20:37.352, 0.0048, 0.9829, 0.0600, 0.1430,-0.1743, 0.0454,-2.1622,-1.4701,-0.8430
09-Sep-2020 11:20:37.362,-0.0016, 0.9931, 0.0831, 0.1258,-0.1566, 0.0555,-2.1546,-1.4713,-0.8337
09-Sep-2020 11:20:37.372,-0.0081, 0.9889, 0.1216, 0.1038,-0.1103, 0.0379,-2.1487,-1.4726,-0.8262
09-Sep-2020 11:20:37.382,-0.0112, 0.9901, 0.1736, 0.0618,-0.0206,-0.0110,-2.1431,-1.4735,-0.8195
09-Sep-2020 11:20:37.393,-0.0229, 1.0275, 0.2306,-0.0211, 0.1400,-0.0389,-2.1378,-1.4738,-0.8140
09-Sep-2020 11:20:37.402,-0.0463, 1.0818, 0.2614,-0.1401, 0.3187,-0.0424,-2.1365,-1.4735,-0.8140
09-Sep-2020 11:20:37.412,-0.0648, 1.1064, 0.2540,-0.2528, 0.4389,-0.0207,-2.1431,-1.4725,-0.8239
09-Sep-2020 11:20:37.422,-0.0852, 1.0879, 0.2043,-0.3314, 0.4307,-0.0310,-2.1587,-1.4710,-0.8438
09-Sep-2020 11:20:37.432,-0.0943, 1.0509, 0.1536,-0.3825, 0.3082,-0.0605,-2.1796,-1.4689,-0.8690
09-Sep-2020 11:20:37.442,-0.1036, 1.0007, 0.1164,-0.4105, 0.1415,-0.0571,-2.2033,-1.4663,-0.8959
09-Sep-2020 11:20:37.452,-0.1254, 0.9509, 0.0698,-0.3826,-0.0682,-0.0292,-2.2295,-1.4635,-0.9236
09-Sep-2020 11:20:37.462,-0.1511, 0.9323, 0.0333,-0.3164,-0.3269,-0.0269,-2.2558,-1.4610,-0.9494
09-Sep-2020 11:20:37.472,-0.1595, 0.9315, 0.0076,-0.2338,-0.6027,-0.0339,-2.2792,-1.4589,-0.9696
09-Sep-2020 11:20:37.482,-0.1521, 0.9435, 0.0019,-0.1705,-0.8413,-0.0414,-2.2990,-1.4572,-0.9835
09-Sep-2020 11:20:37.492,-0.1387, 0.9542, 0.0078,-0.1369,-0.9156,-0.0586,-2.3161,-1.4558,-0.9924
09-Sep-2020 11:20:37.502,-0.1251, 0.9477,-0.0115,-0.0809,-0.9459,-0.0779,-2.3305,-1.4545,-0.9977
09-Sep-2020 11:20:37.512,-0.1149, 0.9466,-0.0185,-0.0205,-0.9376,-0.1016,-2.3404,-1.4535,-0.9983
09-Sep-2020 11:20:37.522,-0.1088, 0.9557,-0.0007, 0.0419,-0.8507,-0.1045,-2.3452,-1.4527,-0.9938
09-Sep-2020 11:20:37.532,-0.1110, 0.9680, 0.0220, 0.0998,-0.6992,-0.1079,-2.3453,-1.4523,-0.9853
09-Sep-2020 11:20:37.541,-0.1038, 0.9693, 0.0377, 0.1464,-0.5535,-0.1188,-2.3403,-1.4523,-0.9733
09-Sep-2020 11:20:37.552,-0.0847, 0.9603, 0.0464, 0.1829,-0.4804,-0.1422,-2.3304,-1.4526,-0.9577
09-Sep-2020 11:20:37.561,-0.0542, 0.9540, 0.0721, 0.1977,-0.4494,-0.1472,-2.3163,-1.4528,-0.9386
09-Sep-2020 11:20:37.571,-0.0271, 0.9586, 0.1057, 0.1819,-0.3767,-0.1303,-2.3005,-1.4532,-0.9183
09-Sep-2020 11:20:37.581,-0.0009, 0.9768, 0.1158, 0.1674,-0.2919,-0.1051,-2.2857,-1.4535,-0.8996
09-Sep-2020 11:20:37.591, 0.0177, 1.0073, 0.1150, 0.1526,-0.2211,-0.0735,-2.2723,-1.4538,-0.8832
09-Sep-2020 11:20:37.602, 0.0268, 1.0293, 0.1127, 0.1441,-0.2127,-0.0265,-2.2608,-1.4544,-0.8694
09-Sep-2020 11:20:37.611, 0.0325, 1.0464, 0.1297, 0.1194,-0.2380, 0.0226,-2.2522,-1.4551,-0.8585
09-Sep-2020 11:20:37.621, 0.0214, 1.0499, 0.1231, 0.0881,-0.2658, 0.0690,-2.2479,-1.4561,-0.8519
09-Sep-2020 11:20:37.631, 0.0087, 1.0419, 0.0836, 0.0875,-0.3917, 0.1156,-2.2484,-1.4573,-0.8496
09-Sep-2020 11:20:37.641,-0.0087, 1.0284, 0.0630, 0.0938,-0.5489, 0.1519,-2.2529,-1.4588,-0.8501
09-Sep-2020 11:20:37.651,-0.0180, 1.0160, 0.0672, 0.1136,-0.6556, 0.1604,-2.2604,-1.4607,-0.8522
09-Sep-2020 11:20:37.661,-0.0184, 0.9958, 0.0831, 0.1163,-0.6746, 0.1283,-2.2684,-1.4627,-0.8538
09-Sep-2020 11:20:37.671,-0.0111, 0.9724, 0.0876, 0.0877,-0.6196, 0.0734,-2.2747,-1.4645,-0.8534
09-Sep-2020 11:20:37.681, 0.0010, 0.9550, 0.0760, 0.0442,-0.5298, 0.0394,-2.2793,-1.4657,-0.8519
09-Sep-2020 11:20:37.691, 0.0032, 0.9506, 0.0630, 0.0270,-0.4173, 0.0237,-2.2838,-1.4664,-0.8511
09-Sep-2020 11:20:37.701,-0.0017, 0.9479, 0.0567, 0.0322,-0.3051, 0.0182,-2.2878,-1.4668,-0.8509
09-Sep-2020 11:20:37.711,-0.0121, 0.9560, 0.0533, 0.0659,-0.2255, 0.0084,-2.2896,-1.4672,-0.8496
09-Sep-2020 11:20:37.721,-0.0202, 0.9699, 0.0559, 0.1148,-0.2050, 0.0064,-2.2877,-1.4678,-0.8454
09-Sep-2020 11:20:37.731,-0.0240, 0.9792, 0.0844, 0.1072,-0.1802, 0.0188,-2.2824,-1.4687,-0.8380
09-Sep-2020 11:20:37.742,-0.0231, 0.9808, 0.1088, 0.0352,-0.0909, 0.0053,-2.2780,-1.4696,-0.8318
09-Sep-2020 11:20:37.751,-0.0023, 0.9696, 0.0858,-0.0039,-0.0265,-0.0516,-2.2764,-1.4699,-0.8292
09-Sep-2020 11:20:37.760, 0.0308, 0.9763, 0.0654, 0.0160,-0.0105,-0.0177,-2.2740,-1.4696,-0.8265
09-Sep-2020 11:20:37.770, 0.0220, 0.9986, 0.0677, 0.0552,-0.0019, 0.0697,-2.2721,-1.4697,-0.8245
09-Sep-2020 11:20:37.780,-0.0155, 0.9884, 0.0742, 0.0732,-0.0346, 0.1080,-2.2726,-1.4707,-0.8250
09-Sep-2020 11:20:37.790,-0.0371, 0.9810, 0.0833, 0.0509,-0.1041, 0.1096,-2.2746,-1.4720,-0.8266
09-Sep-2020 11:20:37.800,-0.0539, 0.9816, 0.0892, 0.0153,-0.1551, 0.1130,-2.2792,-1.4732,-0.8302
09-Sep-2020 11:20:37.810,-0.0638, 0.9939, 0.1032, 0.0119,-0.1344, 0.0976,-2.2869,-1.4743,-0.8364
09-Sep-2020 11:20:37.820,-0.0659, 1.0045, 0.1098, 0.0043,-0.0850, 0.0864,-2.2943,-1.4752,-0.8425
09-Sep-2020 11:20:37.830,-0.0775, 1.0072, 0.1100,-0.0302,-0.0689, 0.0902,-2.3019,-1.4759,-0.8492
09-Sep-2020 11:20:37.840,-0.0846, 1.0118, 0.1106,-0.0506,-0.0501, 0.0682,-2.3120,-1.4765,-0.8587
09-Sep-2020 11:20:37.850,-0.0827, 1.0149, 0.1021,-0.0465,-0.0327, 0.0388,-2.3222,-1.4768,-0.8684
09-Sep-2020 11:20:37.860,-0.0673, 1.0044, 0.0916,-0.0516,-0.0440, 0.0190,-2.3302,-1.4770,-0.8761
09-Sep-2020 11:20:37.870,-0.0443, 0.9903, 0.0760,-0.0539,-0.0838, 0.0210,-2.3370,-1.4769,-0.8825
09-Sep-2020 11:20:37.880,-0.0235, 0.9851, 0.0670,-0.0454,-0.1171, 0.0364,-2.3443,-1.4768,-0.8889
09-Sep-2020 11:20:37.890,-0.0119, 0.9787, 0.0634,-0.0501,-0.1482, 0.0516,-2.3525,-1.4769,-0.8960
09-Sep-2020 11:20:37.900,-0.0071, 0.9874, 0.0628,-0.0447,-0.1496, 0.0537,-2.3620,-1.4769,-0.9040
09-Sep-2020 11:20:37.910,-0.0076, 0.9916, 0.0613,-0.0330,-0.1473, 0.0417,-2.3713,-1.4770,-0.9119
09-Sep-2020 11:20:37.920,-0.0084, 0.9856, 0.0616,-0.0085,-0.1379, 0.0421,-2.3788,-1.4771,-0.9180
09-Sep-2020 11:20:37.930,-0.0342, 1.0091, 0.0552, 0.0145,-0.1583, 0.0551,-2.3846,-1.4774,-0.9223
09-Sep-2020 11:20:37.940,-0.0677, 1.0127, 0.0579, 0.0135,-0.2308, 0.0546,-2.3898,-1.4778,-0.9260
09-Sep-2020 11:20:37.950,-0.0742, 1.0036, 0.0774, 0.0085,-0.2523, 0.0234,-2.3956,-1.4783,-0.9295
09-Sep-2020 11:20:37.960,-0.0617, 0.9923, 0.0905, 0.0129,-0.1881,-0.0009,-2.3998,-1.4786,-0.9312
09-Sep-2020 11:20:37.969,-0.0320, 0.9589, 0.0919, 0.0166,-0.0643,-0.0155,-2.4013,-1.4788,-0.9309
09-Sep-2020 11:20:37.979,-0.0089, 0.9343, 0.0831, 0.0224, 0.0887,-0.0055,-2.4005,-1.4790,-0.9294
09-Sep-2020 11:20:37.989,-0.0109, 0.9379, 0.0670, 0.0194, 0.2095, 0.0063,-2.3985,-1.4793,-0.9283
09-Sep-2020 11:20:37.999,-0.0302, 0.9647, 0.0425, 0.0199, 0.2567, 0.0130,-2.3964,-1.4796,-0.9283
09-Sep-2020 11:20:38.010,-0.0461, 0.9898, 0.0336, 0.0422, 0.2493, 0.0087,-2.3941,-1.4800,-0.9284
09-Sep-2020 11:20:38.019,-0.0565, 1.0040, 0.0488, 0.0603, 0.2313,-0.0052,-2.3898,-1.4805,-0.9267
09-Sep-2020 11:20:38.029,-0.0580, 1.0023, 0.0688, 0.0568, 0.2224,-0.0243,-2.3830,-1.4810,-0.9221
09-Sep-2020 11:20:38.039,-0.0566, 0.9989, 0.0769, 0.0463, 0.2180,-0.0408,-2.3747,-1.4813,-0.9159
09-Sep-2020 11:20:38.049,-0.0546, 1.0026, 0.0774, 0.0365, 0.2132,-0.0579,-2.3660,-1.4814,-0.9094
09-Sep-2020 11:20:38.059,-0.0463, 1.0088, 0.0751, 0.0374, 0.2056,-0.0765,-2.3570,-1.4813,-0.9025
09-Sep-2020 11:20:38.069,-0.0357, 1.0083, 0.0745, 0.0318, 0.2072,-0.0758,-2.3471,-1.4811,-0.8946
09-Sep-2020 11:20:38.079,-0.0283, 0.9849, 0.0641, 0.0072, 0.1703,-0.0450,-2.3381,-1.4809,-0.8876
09-Sep-2020 11:20:38.089,-0.0321, 0.9962, 0.0527, 0.0062, 0.1287,-0.0417,-2.3325,-1.4808,-0.8837
09-Sep-2020 11:20:38.099,-0.0263, 1.0031, 0.0572,-0.0072, 0.1083,-0.0311,-2.3279,-1.4806,-0.8804
09-Sep-2020 11:20:38.109,-0.0223, 1.0038, 0.0567,-0.0163, 0.1313,-0.0277,-2.3250,-1.4805,-0.8785
09-Sep-2020 11:20:38.119,-0.0182, 1.0035, 0.0482, 0.0063, 0.1694,-0.0144,-2.3229,-1.4803,-0.8777
09-Sep-2020 11:20:38.129,-0.0209, 0.9999, 0.0504, 0.0314, 0.2077, 0.0145,-2.3202,-1.4803,-0.8767
09-Sep-2020 11:20:38.139,-0.0210, 0.9988, 0.0495, 0.0359, 0.2025,-0.0082,-2.3169,-1.4807,-0.8754
09-Sep-2020 11:20:38.149,-0.0024, 0.9944, 0.0664, 0.0344, 0.2541,-0.0248,-2.3119,-1.4810,-0.8724
09-Sep-2020 11:20:38.159, 0.0087, 0.9934, 0.0718, 0.0448, 0.3435,-0.0175,-2.3054,-1.4811,-0.8684
09-Sep-2020 11:20:38.169, 0.0101, 0.9940, 0.0594, 0.0563, 0.4053, 0.0115,-2.2977,-1.4814,-0.8641
09-Sep-2020 11:20:38.179,-0.0021, 0.9999, 0.0488, 0.0712, 0.4250, 0.0152,-2.2901,-1.4820,-0.8605
09-Sep-2020 11:20:38.189,-0.0139, 0.9910, 0.0590, 0.0532, 0.4254, 0.0170,-2.2819,-1.4827,-0.8564
09-Sep-2020 11:20:38.199,-0.0108, 0.9744, 0.0578, 0.0273, 0.3891, 0.0215,-2.2751,-1.4833,-0.8539
09-Sep-2020 11:20:38.209,-0.0107, 0.9696, 0.0500, 0.0291, 0.3348, 0.0284,-2.2709,-1.4838,-0.8536
09-Sep-2020 11:20:38.219,-0.0160, 0.9692, 0.0571, 0.0301, 0.3016, 0.0378,-2.2679,-1.4843,-0.8538
09-Sep-2020 11:20:38.229,-0.0177, 0.9717, 0.0606, 0.0255, 0.2912, 0.0400,-2.2652,-1.4849,-0.8542
09-Sep-2020 11:20:38.238,-0.0159, 0.9733, 0.0579, 0.0281, 0.2965, 0.0463,-2.2631,-1.4854,-0.8550
09-Sep-2020 11:20:38.249,-0.0232, 0.9774, 0.0620, 0.0385, 0.3238, 0.0462,-2.2612,-1.4860,-0.8560
09-Sep-2020 11:20:38.258,-0.0281, 0.9861, 0.0693, 0.0511, 0.3737, 0.0402,-2.2582,-1.4867,-0.8563
09-Sep-2020 11:20:38.268,-0.0291, 0.9980, 0.0740, 0.0519, 0.4245, 0.0402,-2.2533,-1.4874,-0.8551
09-Sep-2020 11:20:38.278,-0.0358, 1.0100, 0.0723, 0.0547, 0.4564, 0.0354,-2.2475,-1.4881,-0.8535
09-Sep-2020 11:20:38.288,-0.0423, 1.0153, 0.0681, 0.0585, 0.4681, 0.0314,-2.2406,-1.4888,-0.8511
09-Sep-2020 11:20:38.298,-0.0482, 1.0204, 0.0716, 0.0671, 0.4695, 0.0283,-2.2329,-1.4895,-0.8480
09-Sep-2020 11:20:38.308,-0.0599, 1.0183, 0.0796, 0.0629, 0.4565, 0.0296,-2.2243,-1.4902,-0.8441
09-Sep-2020 11:20:38.318,-0.0724, 1.0166, 0.0836, 0.0473, 0.4221, 0.0274,-2.2160,-1.4909,-0.8403
09-Sep-2020 11:20:38.328,-0.0842, 1.0141, 0.0867, 0.0322, 0.3661, 0.0276,-2.2093,-1.4915,-0.8378
09-Sep-2020 11:20:38.338,-0.0907, 1.0090, 0.0901, 0.0219, 0.2910, 0.0271,-2.2044,-1.4920,-0.8365
09-Sep-2020 11:20:38.348,-0.0912, 1.0029, 0.0858, 0.0076, 0.2112, 0.0258,-2.2014,-1.4924,-0.8364
09-Sep-2020 11:20:38.358,-0.0825, 0.9998, 0.0808,-0.0100, 0.1480, 0.0215,-2.2007,-1.4928,-0.8378
09-Sep-2020 11:20:38.368,-0.0721, 0.9970, 0.0762,-0.0248, 0.1050, 0.0125,-2.2020,-1.4930,-0.8406
09-Sep-2020 11:20:38.378,-0.0585, 0.9973, 0.0699,-0.0289, 0.1000, 0.0093,-2.2045,-1.4930,-0.8442
09-Sep-2020 11:20:38.387,-0.0508, 0.9966, 0.0635,-0.0226, 0.1048, 0.0051,-2.2072,-1.4930,-0.8479
09-Sep-2020 11:20:38.397,-0.0485, 0.9939, 0.0605,-0.0126, 0.1181,-0.0014,-2.2089,-1.4930,-0.8507
09-Sep-2020 11:20:38.407,-0.0474, 0.9942, 0.0626,-0.0111, 0.1302,-0.0110,-2.2091,-1.4929,-0.8520
09-Sep-2020 11:20:38.417,-0.0443, 0.9952, 0.0634,-0.0129, 0.1332,-0.0163,-2.2082,-1.4929,-0.8524
09-Sep-2020 11:20:38.428,-0.0360, 0.9934, 0.0584,-0.0158, 0.1234,-0.0159,-2.2072,-1.4928,-0.8527
09-Sep-2020 11:20:38.437,-0.0269, 0.9892, 0.0489,-0.0213, 0.1127,-0.0110,-2.2066,-1.4926,-0.8533
09-Sep-2020 11:20:38.447,-0.0145, 0.9880, 0.0415,-0.0218, 0.1014, 0.0013,-2.2072,-1.4925,-0.8551
09-Sep-2020 11:20:38.457,-0.0101, 0.9878, 0.0383,-0.0212, 0.1004, 0.0143,-2.2089,-1.4924,-0.8578
09-Sep-2020 11:20:38.467,-0.0095, 0.9890, 0.0392,-0.0195, 0.1135, 0.0205,-2.2115,-1.4924,-0.8613
09-Sep-2020 11:20:38.477,-0.0087, 0.9891, 0.0347,-0.0148, 0.1286, 0.0274,-2.2144,-1.4925,-0.8654
09-Sep-2020 11:20:38.488,-0.0094, 0.9900, 0.0310, 0.0006, 0.1369, 0.0309,-2.2172,-1.4927,-0.8694
09-Sep-2020 11:20:38.497,-0.0134, 0.9911, 0.0329, 0.0120, 0.1485, 0.0399,-2.2187,-1.4931,-0.8723
09-Sep-2020 11:20:38.507,-0.0202, 0.9928, 0.0362, 0.0258, 0.1612, 0.0411,-2.2195,-1.4935,-0.8746
09-Sep-2020 11:20:38.517,-0.0273, 0.9940, 0.0431, 0.0271, 0.1733, 0.0477,-2.2192,-1.4941,-0.8759
09-Sep-2020 11:20:38.527,-0.0377, 0.9960, 0.0478, 0.0268, 0.1787, 0.0485,-2.2190,-1.4948,-0.8774
09-Sep-2020 11:20:38.537,-0.0483, 0.9966, 0.0465, 0.0242, 0.1773, 0.0498,-2.2188,-1.4954,-0.8790
09-Sep-2020 11:20:38.547,-0.0512, 0.9976, 0.0435, 0.0244, 0.1531, 0.0502,-2.2189,-1.4961,-0.8809
09-Sep-2020 11:20:38.557,-0.0542, 0.9984, 0.0454, 0.0232, 0.1339, 0.0570,-2.2195,-1.4968,-0.8829
09-Sep-2020 11:20:38.567,-0.0588, 0.9990, 0.0475, 0.0249, 0.1124, 0.0590,-2.2209,-1.4975,-0.8857
09-Sep-2020 11:20:38.577,-0.0617, 0.9989, 0.0485, 0.0268, 0.1000, 0.0563,-2.2225,-1.4983,-0.8884
09-Sep-2020 11:20:38.587,-0.0611, 0.9988, 0.0483, 0.0229, 0.0792, 0.0557,-2.2240,-1.4991,-0.8909
09-Sep-2020 11:20:38.597,-0.0602, 0.9986, 0.0486, 0.0235, 0.0509, 0.0569,-2.2260,-1.4998,-0.8937
09-Sep-2020 11:20:38.607,-0.0562, 0.9962, 0.0507, 0.0242, 0.0217, 0.0616,-2.2283,-1.5005,-0.8965
09-Sep-2020 11:20:38.616,-0.0526, 0.9928, 0.0498, 0.0228, 0.0027, 0.0561,-2.2311,-1.5012,-0.8996
09-Sep-2020 11:20:38.627,-0.0479, 0.9902, 0.0509, 0.0214,-0.0179, 0.0555,-2.2338,-1.5019,-0.9023
09-Sep-2020 11:20:38.637,-0.0445, 0.9912, 0.0532, 0.0162,-0.0295, 0.0550,-2.2368,-1.5026,-0.9050
09-Sep-2020 11:20:38.646,-0.0454, 0.9962, 0.0553, 0.0134,-0.0424, 0.0501,-2.2404,-1.5032,-0.9083
09-Sep-2020 11:20:38.656,-0.0433, 0.9992, 0.0584, 0.0121,-0.0556, 0.0408,-2.2439,-1.5038,-0.9114
09-Sep-2020 11:20:38.666,-0.0398, 1.0001, 0.0585, 0.0055,-0.0718, 0.0245,-2.2470,-1.5042,-0.9140
09-Sep-2020 11:20:38.676,-0.0336, 0.9986, 0.0530,-0.0104,-0.0863, 0.0151,-2.2498,-1.5045,-0.9161
09-Sep-2020 11:20:38.686,-0.0263, 0.9958, 0.0457,-0.0136,-0.0967, 0.0071,-2.2534,-1.5047,-0.9188
09-Sep-2020 11:20:38.696,-0.0170, 0.9941, 0.0411,-0.0141,-0.0990, 0.0033,-2.2570,-1.5047,-0.9214
09-Sep-2020 11:20:38.706,-0.0061, 0.9919, 0.0384,-0.0080,-0.0908,-0.0032,-2.2602,-1.5047,-0.9236
09-Sep-2020 11:20:38.716, 0.0046, 0.9895, 0.0365, 0.0031,-0.0688,-0.0058,-2.2621,-1.5047,-0.9246
09-Sep-2020 11:20:38.726, 0.0102, 0.9882, 0.0374, 0.0128,-0.0274,-0.0113,-2.2624,-1.5048,-0.9242
09-Sep-2020 11:20:38.736, 0.0145, 0.9874, 0.0391, 0.0255, 0.0250,-0.0117,-2.2605,-1.5049,-0.9221
09-Sep-2020 11:20:38.746, 0.0152, 0.9895, 0.0369, 0.0395, 0.0741,-0.0124,-2.2567,-1.5050,-0.9185
09-Sep-2020 11:20:38.756, 0.0139, 0.9902, 0.0339, 0.0541, 0.1130,-0.0110,-2.2508,-1.5053,-0.9133
09-Sep-2020 11:20:38.766, 0.0097, 0.9903, 0.0299, 0.0707, 0.1379,-0.0103,-2.2426,-1.5056,-0.9062
09-Sep-2020 11:20:38.776, 0.0054, 0.9925, 0.0286, 0.0828, 0.1623,-0.0120,-2.2322,-1.5060,-0.8972
09-Sep-2020 11:20:38.786,-0.0033, 0.9939, 0.0325, 0.0886, 0.1760,-0.0100,-2.2200,-1.5066,-0.8865
09-Sep-2020 11:20:38.796,-0.0110, 0.9971, 0.0371, 0.0910, 0.1927,-0.0134,-2.2069,-1.5071,-0.8752
09-Sep-2020 11:20:38.805,-0.0204, 1.0018, 0.0456, 0.0882, 0.2014,-0.0112,-2.1931,-1.5077,-0.8633
09-Sep-2020 11:20:38.815,-0.0335, 1.0079, 0.0511, 0.0789, 0.1988,-0.0133,-2.1795,-1.5083,-0.8516
09-Sep-2020 11:20:38.826,-0.0463, 1.0105, 0.0589, 0.0708, 0.1839,-0.0116,-2.1669,-1.5088,-0.8410
09-Sep-2020 11:20:38.835,-0.0572, 1.0097, 0.0577, 0.0606, 0.1513,-0.0140,-2.1558,-1.5092,-0.8316
09-Sep-2020 11:20:38.846,-0.0641, 1.0082, 0.0557, 0.0481, 0.1015,-0.0150,-2.1459,-1.5096,-0.8232
09-Sep-2020 11:20:38.855,-0.0702, 1.0073, 0.0519, 0.0370, 0.0502,-0.0201,-2.1376,-1.5099,-0.8159
09-Sep-2020 11:20:38.865,-0.0711, 1.0036, 0.0457, 0.0223,-0.0011,-0.0273,-2.1309,-1.5100,-0.8097
09-Sep-2020 11:20:38.875,-0.0633, 0.9998, 0.0396, 0.0144,-0.0349,-0.0340,-2.1259,-1.5101,-0.8047
09-Sep-2020 11:20:38.885,-0.0531, 0.9982, 0.0330, 0.0138,-0.0467,-0.0417,-2.1218,-1.5100,-0.8002
09-Sep-2020 11:20:38.895,-0.0427, 0.9964, 0.0265, 0.0163,-0.0405,-0.0482,-2.1174,-1.5099,-0.7953
09-Sep-2020 11:20:38.905,-0.0372, 0.9977, 0.0217, 0.0203,-0.0262,-0.0529,-2.1120,-1.5097,-0.7895
09-Sep-2020 11:20:38.915,-0.0352, 0.9991, 0.0199, 0.0134,-0.0188,-0.0499,-2.1058,-1.5094,-0.7830
09-Sep-2020 11:20:38.925,-0.0332, 0.9996, 0.0212, 0.0078,-0.0158,-0.0451,-2.1006,-1.5091,-0.7776
09-Sep-2020 11:20:38.935,-0.0322, 1.0010, 0.0222, 0.0019,-0.0198,-0.0350,-2.0964,-1.5088,-0.7732
09-Sep-2020 11:20:38.945,-0.0314, 1.0018, 0.0202, 0.0044,-0.0361,-0.0291,-2.0937,-1.5086,-0.7703
09-Sep-2020 11:20:38.955,-0.0282, 1.0000, 0.0211, 0.0065,-0.0522,-0.0171,-2.0913,-1.5084,-0.7676
09-Sep-2020 11:20:38.965,-0.0282, 1.0004, 0.0251, 0.0055,-0.0687,-0.0104,-2.0896,-1.5083,-0.7653
09-Sep-2020 11:20:38.975,-0.0276, 1.0008, 0.0308,-0.0005,-0.0824,-0.0031,-2.0889,-1.5083,-0.7639
09-Sep-2020 11:20:38.985,-0.0255, 1.0039, 0.0371,-0.0089,-0.0860, 0.0055,-2.0896,-1.5084,-0.7638
09-Sep-2020 11:20:38.994,-0.0246, 1.0076, 0.0381,-0.0140,-0.0972, 0.0163,-2.0923,-1.5085,-0.7657
09-Sep-2020 11:20:39.005,-0.0231, 1.0086, 0.0370,-0.0183,-0.1074, 0.0212,-2.0967,-1.5087,-0.7691
09-Sep-2020 11:20:39.014,-0.0207, 1.0057, 0.0346,-0.0247,-0.1091, 0.0235,-2.1022,-1.5089,-0.7735
09-Sep-2020 11:20:39.025,-0.0164, 0.9975, 0.0322,-0.0270,-0.0971, 0.0300,-2.1086,-1.5091,-0.7788
09-Sep-2020 11:20:39.034,-0.0143, 0.9928, 0.0318,-0.0326,-0.0670, 0.0308,-2.1157,-1.5093,-0.7850
09-Sep-2020 11:20:39.044,-0.0117, 0.9907, 0.0319,-0.0297,-0.0238, 0.0378,-2.1234,-1.5096,-0.7921
09-Sep-2020 11:20:39.055,-0.0093, 0.9922, 0.0297,-0.0130, 0.0238, 0.0449,-2.1310,-1.5098,-0.7994
09-Sep-2020 11:20:39.064,-0.0065, 0.9979, 0.0299, 0.0119, 0.0597, 0.0546,-2.1366,-1.5103,-0.8053
09-Sep-2020 11:20:39.074,-0.0035, 0.9995, 0.0365, 0.0337, 0.0995, 0.0654,-2.1396,-1.5109,-0.8088
09-Sep-2020 11:20:39.085,-0.0085, 0.9979, 0.0438, 0.0424, 0.1239, 0.0638,-2.1401,-1.5117,-0.8103
09-Sep-2020 11:20:39.094,-0.0102, 0.9969, 0.0539, 0.0365, 0.1372, 0.0634,-2.1392,-1.5126,-0.8106
09-Sep-2020 11:20:39.105,-0.0107, 1.0001, 0.0584, 0.0239, 0.1353, 0.0710,-2.1390,-1.5135,-0.8118
09-Sep-2020 11:20:39.114,-0.0109, 1.0036, 0.0567, 0.0111, 0.1200, 0.0786,-2.1412,-1.5143,-0.8153
09-Sep-2020 11:20:39.124,-0.0083, 1.0046, 0.0494, 0.0148, 0.1048, 0.0916,-2.1463,-1.5152,-0.8216
09-Sep-2020 11:20:39.134,-0.0065, 1.0031, 0.0460, 0.0237, 0.0880, 0.1019,-2.1527,-1.5161,-0.8290
09-Sep-2020 11:20:39.144,-0.0111, 1.0030, 0.0450, 0.0273, 0.0730, 0.1028,-2.1590,-1.5172,-0.8362
09-Sep-2020 11:20:39.154,-0.0148, 1.0021, 0.0476, 0.0303, 0.0548, 0.1011,-2.1653,-1.5183,-0.8432
09-Sep-2020 11:20:39.164,-0.0184, 0.9996, 0.0580, 0.0293, 0.0389, 0.0985,-2.1716,-1.5195,-0.8501
09-Sep-2020 11:20:39.174,-0.0264, 1.0006, 0.0639, 0.0199, 0.0324, 0.1000,-2.1784,-1.5206,-0.8573
09-Sep-2020 11:20:39.184,-0.0347, 1.0011, 0.0614, 0.0099, 0.0133, 0.0925,-2.1871,-1.5216,-0.8663
09-Sep-2020 11:20:39.194,-0.0342, 1.0037, 0.0578,-0.0025,-0.0188, 0.0835,-2.1976,-1.5225,-0.8769
09-Sep-2020 11:20:39.204,-0.0376, 1.0019, 0.0498,-0.0145,-0.0490, 0.0794,-2.2096,-1.5232,-0.8888
09-Sep-2020 11:20:39.214,-0.0387, 0.9951, 0.0441,-0.0251,-0.1055, 0.0691,-2.2235,-1.5239,-0.9021
09-Sep-2020 11:20:39.224,-0.0374, 0.9858, 0.0354,-0.0235,-0.1259, 0.0678,-2.2387,-1.5244,-0.9163
09-Sep-2020 11:20:39.233,-0.0427, 0.9831, 0.0323,-0.0258,-0.1479, 0.0503,-2.2539,-1.5248,-0.9303
09-Sep-2020 11:20:39.243,-0.0428, 0.9861, 0.0304,-0.0282,-0.1610, 0.0357,-2.2677,-1.5252,-0.9426
09-Sep-2020 11:20:39.253,-0.0424, 0.9904, 0.0341,-0.0362,-0.1608, 0.0218,-2.2801,-1.5253,-0.9534
09-Sep-2020 11:20:39.264,-0.0456, 0.9911, 0.0335,-0.0357,-0.1694, 0.0162,-2.2922,-1.5253,-0.9639
09-Sep-2020 11:20:39.273,-0.0447, 0.9877, 0.0316,-0.0415,-0.1919, 0.0120,-2.3035,-1.5253,-0.9735
09-Sep-2020 11:20:39.283,-0.0409, 0.9882, 0.0308,-0.0453,-0.2238, 0.0081,-2.3150,-1.5251,-0.9831
09-Sep-2020 11:20:39.293,-0.0340, 0.9880, 0.0304,-0.0453,-0.2515, 0.0031,-2.3266,-1.5250,-0.9925
09-Sep-2020 11:20:39.303,-0.0174, 0.9960, 0.0253,-0.0477,-0.2673,-0.0077,-2.3373,-1.5247,-1.0007
09-Sep-2020 11:20:39.313, 0.0010, 1.0009, 0.0184,-0.0474,-0.2641,-0.0073,-2.3468,-1.5244,-1.0076
09-Sep-2020 11:20:39.323, 0.0063, 1.0031, 0.0109,-0.0441,-0.2339,-0.0075,-2.3556,-1.5241,-1.0138
09-Sep-2020 11:20:39.333, 0.0011, 1.0007, 0.0031,-0.0354,-0.2011,-0.0012,-2.3634,-1.5238,-1.0192
09-Sep-2020 11:20:39.343,-0.0124, 1.0007, 0.0049,-0.0270,-0.1627, 0.0009,-2.3705,-1.5237,-1.0243
09-Sep-2020 11:20:39.353,-0.0268, 1.0000, 0.0127,-0.0211,-0.1346, 0.0047,-2.3766,-1.5235,-1.0289
09-Sep-2020 11:20:39.363,-0.0406, 0.9973, 0.0237,-0.0116,-0.1280, 0.0031,-2.3818,-1.5235,-1.0326
09-Sep-2020 11:20:39.373,-0.0518, 0.9949, 0.0346,-0.0097,-0.1478,-0.0008,-2.3853,-1.5235,-1.0348
09-Sep-2020 11:20:39.383,-0.0614, 0.9950, 0.0437,-0.0213,-0.2013,-0.0019,-2.3886,-1.5235,-1.0367
09-Sep-2020 11:20:39.393,-0.0689, 0.9958, 0.0561,-0.0405,-0.2684,-0.0011,-2.3940,-1.5234,-1.0401
09-Sep-2020 11:20:39.403,-0.0726, 0.9931, 0.0613,-0.0615,-0.3316, 0.0014,-2.4030,-1.5232,-1.0464
09-Sep-2020 11:20:39.413,-0.0700, 0.9880, 0.0586,-0.0790,-0.3914,-0.0010,-2.4160,-1.5229,-1.0561
09-Sep-2020 11:20:39.423,-0.0587, 0.9834, 0.0537,-0.0862,-0.4292,-0.0105,-2.4312,-1.5224,-1.0674
09-Sep-2020 11:20:39.433,-0.0349, 0.9795, 0.0522,-0.0850,-0.4274,-0.0260,-2.4456,-1.5219,-1.0776
09-Sep-2020 11:20:39.443,-0.0086, 0.9810, 0.0503,-0.0706,-0.3716,-0.0326,-2.4571,-1.5212,-1.0848
09-Sep-2020 11:20:39.453, 0.0105, 0.9827, 0.0490,-0.0613,-0.2960,-0.0357,-2.4650,-1.5205,-1.0891
09-Sep-2020 11:20:39.463, 0.0216, 0.9800, 0.0482,-0.0486,-0.2104,-0.0358,-2.4709,-1.5199,-1.0920
09-Sep-2020 11:20:39.473, 0.0276, 0.9790, 0.0472,-0.0316,-0.1439,-0.0437,-2.4740,-1.5194,-1.0930
09-Sep-2020 11:20:39.482, 0.0347, 0.9835, 0.0506,-0.0161,-0.1062,-0.0450,-2.4734,-1.5189,-1.0910
09-Sep-2020 11:20:39.492, 0.0404, 0.9927, 0.0592,-0.0153,-0.0843,-0.0405,-2.4701,-1.5185,-1.0866
09-Sep-2020 11:20:39.503, 0.0451, 1.0063, 0.0674,-0.0204,-0.0613,-0.0259,-2.4670,-1.5182,-1.0827
09-Sep-2020 11:20:39.512, 0.0443, 1.0163, 0.0702,-0.0215,-0.0450,-0.0158,-2.4661,-1.5179,-1.0811
09-Sep-2020 11:20:39.523, 0.0356, 1.0180, 0.0691,-0.0269,-0.0408,-0.0054,-2.4669,-1.5177,-1.0814
09-Sep-2020 11:20:39.532, 0.0211, 1.0098, 0.0622,-0.0384,-0.0650, 0.0073,-2.4704,-1.5175,-1.0845
09-Sep-2020 11:20:39.542, 0.0076, 0.9974, 0.0554,-0.0357,-0.0961, 0.0086,-2.4773,-1.5174,-1.0908
09-Sep-2020 11:20:39.552, 0.0018, 0.9933, 0.0505,-0.0344,-0.1285, 0.0102,-2.4852,-1.5173,-1.0977
09-Sep-2020 11:20:39.562, 0.0027, 0.9951, 0.0510,-0.0381,-0.1414, 0.0070,-2.4937,-1.5172,-1.1049
09-Sep-2020 11:20:39.572, 0.0042, 0.9982, 0.0534,-0.0461,-0.1308, 0.0005,-2.5023,-1.5170,-1.1121
09-Sep-2020 11:20:39.582, 0.0048, 0.9997, 0.0469,-0.0537,-0.0896,-0.0081,-2.5107,-1.5168,-1.1192
09-Sep-2020 11:20:39.592, 0.0041, 1.0012, 0.0395,-0.0520,-0.0497,-0.0130,-2.5185,-1.5164,-1.1262
09-Sep-2020 11:20:39.602, 0.0004, 1.0009, 0.0380,-0.0402,-0.0125,-0.0160,-2.5248,-1.5160,-1.1320
09-Sep-2020 11:20:39.612,-0.0070, 0.9991, 0.0393,-0.0271, 0.0124,-0.0127,-2.5290,-1.5157,-1.1361
09-Sep-2020 11:20:39.622,-0.0133, 0.9927, 0.0466,-0.0260, 0.0049,-0.0109,-2.5320,-1.5155,-1.1391
09-Sep-2020 11:20:39.632,-0.0187, 0.9857, 0.0511,-0.0283,-0.0222,-0.0114,-2.5346,-1.5154,-1.1417
09-Sep-2020 11:20:39.642,-0.0170, 0.9797, 0.0514,-0.0277,-0.0542,-0.0111,-2.5374,-1.5152,-1.1443
09-Sep-2020 11:20:39.652,-0.0131, 0.9772, 0.0519,-0.0254,-0.0734,-0.0165,-2.5403,-1.5150,-1.1467
09-Sep-2020 11:20:39.662,-0.0087, 0.9775, 0.0505,-0.0252,-0.0811,-0.0259,-2.5427,-1.5148,-1.1483
09-Sep-2020 11:20:39.671,-0.0008, 0.9827, 0.0454,-0.0225,-0.0684,-0.0361,-2.5437,-1.5145,-1.1485
09-Sep-2020 11:20:39.682, 0.0074, 0.9881, 0.0374,-0.0138,-0.0407,-0.0431,-2.5426,-1.5142,-1.1467
09-Sep-2020 11:20:39.691, 0.0158, 0.9880, 0.0346, 0.0026,-0.0033,-0.0526,-2.5390,-1.5140,-1.1427
09-Sep-2020 11:20:39.701, 0.0248, 0.9879, 0.0397, 0.0147, 0.0388,-0.0632,-2.5321,-1.5138,-1.1358
09-Sep-2020 11:20:39.711, 0.0341, 0.9910, 0.0532, 0.0161, 0.0936,-0.0628,-2.5225,-1.5137,-1.1265
09-Sep-2020 11:20:39.721, 0.0374, 0.9919, 0.0559, 0.0209, 0.1418,-0.0663,-2.5119,-1.5135,-1.1168
09-Sep-2020 11:20:39.731, 0.0436, 0.9954, 0.0569, 0.0201, 0.1518,-0.0626,-2.5003,-1.5134,-1.1066
09-Sep-2020 11:20:39.742, 0.0469, 0.9996, 0.0596, 0.0122, 0.1493,-0.0486,-2.4891,-1.5133,-1.0969
09-Sep-2020 11:20:39.751, 0.0451, 1.0070, 0.0598, 0.0106, 0.1412,-0.0361,-2.4806,-1.5131,-1.0898
09-Sep-2020 11:20:39.761, 0.0404, 1.0111, 0.0612, 0.0057, 0.1373,-0.0179,-2.4744,-1.5131,-1.0850
09-Sep-2020 11:20:39.771, 0.0303, 1.0105, 0.0560, 0.0011, 0.1420,-0.0039,-2.4711,-1.5131,-1.0831
09-Sep-2020 11:20:39.781, 0.0169, 1.0091, 0.0523,-0.0016, 0.1407, 0.0068,-2.4702,-1.5132,-1.0836
09-Sep-2020 11:20:39.791, 0.0047, 1.0087, 0.0559,-0.0064, 0.1396, 0.0107,-2.4712,-1.5134,-1.0859
09-Sep-2020 11:20:39.801,-0.0010, 1.0067, 0.0619,-0.0141, 0.1428, 0.0071,-2.4734,-1.5135,-1.0895
09-Sep-2020 11:20:39.811,-0.0022, 1.0009, 0.0594,-0.0198, 0.1571, 0.0076,-2.4765,-1.5136,-1.0940
09-Sep-2020 11:20:39.821,-0.0002, 0.9951, 0.0532,-0.0263, 0.1638, 0.0026,-2.4801,-1.5136,-1.0992
09-Sep-2020 11:20:39.830,-0.0016, 0.9876, 0.0446,-0.0293, 0.1882,-0.0004,-2.4839,-1.5135,-1.1046
09-Sep-2020 11:20:39.841,-0.0062, 0.9857, 0.0397,-0.0196, 0.1830,-0.0100,-2.4870,-1.5134,-1.1096
09-Sep-2020 11:20:39.850,-0.0082, 0.9889, 0.0436,-0.0171, 0.1946,-0.0140,-2.4881,-1.5133,-1.1124
09-Sep-2020 11:20:39.860,-0.0151, 0.9871, 0.0388,-0.0117, 0.2152,-0.0282,-2.4877,-1.5132,-1.1140
09-Sep-2020 11:20:39.870,-0.0170, 0.9820, 0.0318,-0.0037, 0.2227,-0.0391,-2.4845,-1.5131,-1.1130
09-Sep-2020 11:20:39.880,-0.0179, 0.9823, 0.0251,-0.0006, 0.2269,-0.0477,-2.4788,-1.5129,-1.1095
09-Sep-2020 11:20:39.891,-0.0194, 0.9833, 0.0226, 0.0071, 0.2184,-0.0487,-2.4716,-1.5127,-1.1044
09-Sep-2020 11:20:39.900,-0.0223, 0.9866, 0.0284, 0.0156, 0.2196,-0.0471,-2.4635,-1.5126,-1.0985
09-Sep-2020 11:20:39.910,-0.0270, 0.9929, 0.0384, 0.0252, 0.2259,-0.0489,-2.4547,-1.5125,-1.0918
09-Sep-2020 11:20:39.920,-0.0315, 0.9958, 0.0474, 0.0229, 0.2127,-0.0487,-2.4446,-1.5125,-1.0840
09-Sep-2020 11:20:39.930,-0.0327, 1.0014, 0.0544, 0.0179, 0.1780,-0.0456,-2.4347,-1.5125,-1.0761
09-Sep-2020 11:20:39.940,-0.0329, 1.0051, 0.0576, 0.0075, 0.1363,-0.0454,-2.4259,-1.5124,-1.0691
09-Sep-2020 11:20:39.950,-0.0331, 1.0047, 0.0592,-0.0046, 0.0983,-0.0437,-2.4188,-1.5123,-1.0633
09-Sep-2020 11:20:39.960,-0.0341, 1.0029, 0.0597,-0.0109, 0.0695,-0.0412,-2.4135,-1.5120,-1.0589
09-Sep-2020 11:20:39.970,-0.0369, 1.0015, 0.0572,-0.0185, 0.0598,-0.0409,-2.4093,-1.5118,-1.0555
09-Sep-2020 11:20:39.980,-0.0432, 1.0017, 0.0560,-0.0215, 0.0477,-0.0399,-2.4063,-1.5115,-1.0530
09-Sep-2020 11:20:39.990,-0.0448, 1.0011, 0.0553,-0.0226, 0.0385,-0.0420,-2.4036,-1.5112,-1.0508
09-Sep-2020 11:20:40.000,-0.0460, 0.9990, 0.0560,-0.0241, 0.0265,-0.0389,-2.4011,-1.5109,-1.0486
09-Sep-2020 11:20:40.010,-0.0484, 0.9990, 0.0581,-0.0289, 0.0182,-0.0347,-2.3994,-1.5105,-1.0472
09-Sep-2020 11:20:40.020,-0.0486, 1.0004, 0.0565,-0.0309, 0.0046,-0.0396,-2.3985,-1.5102,-1.0465
09-Sep-2020 11:20:40.030,-0.0489, 0.9999, 0.0545,-0.0332,-0.0167,-0.0354,-2.3979,-1.5098,-1.0459
09-Sep-2020 11:20:40.040,-0.0484, 0.9983, 0.0522,-0.0372,-0.0375,-0.0327,-2.3983,-1.5093,-1.0461
09-Sep-2020 11:20:40.050,-0.0454, 0.9948, 0.0514,-0.0359,-0.0651,-0.0330,-2.3994,-1.5089,-1.0469
09-Sep-2020 11:20:40.060,-0.0433, 0.9934, 0.0526,-0.0345,-0.0944,-0.0308,-2.4009,-1.5085,-1.0477
09-Sep-2020 11:20:40.070,-0.0424, 0.9942, 0.0581,-0.0388,-0.1148,-0.0299,-2.4026,-1.5081,-1.0485
09-Sep-2020 11:20:40.079,-0.0409, 0.9944, 0.0599,-0.0490,-0.1337,-0.0370,-2.4049,-1.5077,-1.0496
09-Sep-2020 11:20:40.090,-0.0352, 0.9914, 0.0592,-0.0454,-0.1574,-0.0394,-2.4075,-1.5072,-1.0509
09-Sep-2020 11:20:40.100,-0.0279, 0.9881, 0.0594,-0.0450,-0.1741,-0.0420,-2.4098,-1.5067,-1.0517
09-Sep-2020 11:20:40.109,-0.0184, 0.9870, 0.0616,-0.0439,-0.1748,-0.0475,-2.4117,-1.5061,-1.0518
09-Sep-2020 11:20:40.120,-0.0082, 0.9878, 0.0635,-0.0397,-0.1597,-0.0516,-2.4130,-1.5055,-1.0514
09-Sep-2020 11:20:40.129, 0.0010, 0.9890, 0.0649,-0.0307,-0.1260,-0.0495,-2.4132,-1.5050,-1.0500
09-Sep-2020 11:20:40.139, 0.0081, 0.9901, 0.0654,-0.0244,-0.0861,-0.0476,-2.4123,-1.5045,-1.0478
09-Sep-2020 11:20:40.149, 0.0136, 0.9921, 0.0658,-0.0085,-0.0490,-0.0479,-2.4105,-1.5041,-1.0452
09-Sep-2020 11:20:40.159, 0.0165, 0.9937, 0.0666, 0.0024,-0.0155,-0.0487,-2.4071,-1.5038,-1.0412
09-Sep-2020 11:20:40.169, 0.0175, 0.9929, 0.0690, 0.0081, 0.0081,-0.0436,-2.4024,-1.5036,-1.0363
09-Sep-2020 11:20:40.179, 0.0159, 0.9907, 0.0732, 0.0120, 0.0333,-0.0415,-2.3972,-1.5034,-1.0312
09-Sep-2020 11:20:40.189, 0.0107, 0.9913, 0.0767, 0.0124, 0.0558,-0.0400,-2.3920,-1.5033,-1.0263
09-Sep-2020 11:20:40.199, 0.0068, 0.9923, 0.0791, 0.0161, 0.0743,-0.0375,-2.3867,-1.5032,-1.0215
09-Sep-2020 11:20:40.209, 0.0063, 0.9940, 0.0796, 0.0154, 0.0940,-0.0350,-2.3812,-1.5032,-1.0167
09-Sep-2020 11:20:40.219, 0.0063, 0.9930, 0.0769, 0.0150, 0.1035,-0.0357,-2.3759,-1.5031,-1.0124
09-Sep-2020 11:20:40.229, 0.0069, 0.9935, 0.0739, 0.0172, 0.1219,-0.0299,-2.3708,-1.5031,-1.0083
09-Sep-2020 11:20:40.239, 0.0062, 0.9938, 0.0687, 0.0228, 0.1353,-0.0303,-2.3657,-1.5031,-1.0044
09-Sep-2020 11:20:40.249, 0.0017, 0.9940, 0.0654, 0.0298, 0.1511,-0.0294,-2.3602,-1.5032,-1.0002
09-Sep-2020 11:20:40.259,-0.0027, 0.9935, 0.0635, 0.0301, 0.1689,-0.0280,-2.3541,-1.5033,-0.9956
09-Sep-2020 11:20:40.269,-0.0074, 0.9915, 0.0599, 0.0326, 0.1854,-0.0290,-2.3477,-1.5034,-0.9908
09-Sep-2020 11:20:40.279,-0.0129, 0.9892, 0.0583, 0.0392, 0.1957,-0.0292,-2.3408,-1.5036,-0.9858
09-Sep-2020 11:20:40.288,-0.0151, 0.9872, 0.0555, 0.0441, 0.2070,-0.0324,-2.3332,-1.5037,-0.9800
09-Sep-2020 11:20:40.298,-0.0173, 0.9871, 0.0569, 0.0542, 0.2150,-0.0357,-2.3244,-1.5039,-0.9733
09-Sep-2020 11:20:40.309,-0.0191, 0.9893, 0.0585, 0.0613, 0.2290,-0.0331,-2.3144,-1.5041,-0.9654
09-Sep-2020 11:20:40.319,-0.0209, 0.9909, 0.0596, 0.0664, 0.2460,-0.0383,-2.3033,-1.5044,-0.9565
09-Sep-2020 11:20:40.328,-0.0230, 0.9921, 0.0608, 0.0688, 0.2533,-0.0385,-2.2908,-1.5046,-0.9465
09-Sep-2020 11:20:40.338,-0.0268, 0.9939, 0.0593, 0.0717, 0.2520,-0.0410,-2.2778,-1.5049,-0.9359
09-Sep-2020 11:20:40.348,-0.0322, 0.9958, 0.0572, 0.0684, 0.2503,-0.0368,-2.2644,-1.5052,-0.9249
09-Sep-2020 11:20:40.358,-0.0370, 0.9982, 0.0545, 0.0691, 0.2405,-0.0327,-2.2514,-1.5054,-0.9144
09-Sep-2020 11:20:40.368,-0.0432, 1.0018, 0.0531, 0.0674, 0.2249,-0.0253,-2.2388,-1.5057,-0.9042
09-Sep-2020 11:20:40.378,-0.0501, 1.0060, 0.0555, 0.0633, 0.2123,-0.0171,-2.2270,-1.5060,-0.8946
09-Sep-2020 11:20:40.388,-0.0602, 1.0112, 0.0566, 0.0543, 0.1937,-0.0137,-2.2162,-1.5064,-0.8859
09-Sep-2020 11:20:40.398,-0.0680, 1.0112, 0.0546, 0.0480, 0.1635,-0.0108,-2.2069,-1.5067,-0.8784
09-Sep-2020 11:20:40.408,-0.0709, 1.0088, 0.0502, 0.0440, 0.1116,-0.0086,-2.1990,-1.5070,-0.8722
09-Sep-2020 11:20:40.418,-0.0718, 1.0038, 0.0448, 0.0349, 0.0681,-0.0095,-2.1925,-1.5073,-0.8667
09-Sep-2020 11:20:40.428,-0.0700, 0.9989, 0.0442, 0.0307, 0.0345,-0.0100,-2.1871,-1.5075,-0.8620
09-Sep-2020 11:20:40.438,-0.0664, 0.9928, 0.0423, 0.0262, 0.0205,-0.0159,-2.1825,-1.5077,-0.8578
09-Sep-2020 11:20:40.447,-0.0621, 0.9893, 0.0389, 0.0239, 0.0152,-0.0202,-2.1781,-1.5078,-0.8536
09-Sep-2020 11:20:40.457,-0.0585, 0.9911, 0.0355, 0.0269, 0.0174,-0.0235,-2.1734,-1.5079,-0.8490
09-Sep-2020 11:20:40.467,-0.0555, 0.9926, 0.0299, 0.0330, 0.0108,-0.0230,-2.1680,-1.5079,-0.8438
09-Sep-2020 11:20:40.477,-0.0494, 0.9950, 0.0257, 0.0360, 0.0044,-0.0264,-2.1620,-1.5080,-0.8378
09-Sep-2020 11:20:40.487,-0.0447, 0.9951, 0.0284, 0.0382, 0.0052,-0.0258,-2.1551,-1.5080,-0.8310
09-Sep-2020 11:20:40.497,-0.0437, 0.9963, 0.0330, 0.0399, 0.0186,-0.0237,-2.1479,-1.5081,-0.8238
09-Sep-2020 11:20:40.507,-0.0431, 0.9976, 0.0342, 0.0400, 0.0233,-0.0187,-2.1404,-1.5081,-0.8165
09-Sep-2020 11:20:40.518,-0.0411, 0.9987, 0.0384, 0.0381, 0.0082,-0.0175,-2.1332,-1.5082,-0.8095
09-Sep-2020 11:20:40.527,-0.0374, 0.9992, 0.0405, 0.0290,-0.0227,-0.0129,-2.1266,-1.5083,-0.8029
09-Sep-2020 11:20:40.537,-0.0316, 1.0004, 0.0418, 0.0255,-0.0436,-0.0109,-2.1216,-1.5085,-0.7977
09-Sep-2020 11:20:40.547,-0.0308, 1.0000, 0.0417, 0.0186,-0.0559,-0.0080,-2.1177,-1.5086,-0.7933
09-Sep-2020 11:20:40.557,-0.0320, 0.9969, 0.0395, 0.0194,-0.0541,-0.0030,-2.1149,-1.5087,-0.7900
09-Sep-2020 11:20:40.567,-0.0352, 0.9940, 0.0365, 0.0164,-0.0505,-0.0034,-2.1127,-1.5088,-0.7872
09-Sep-2020 11:20:40.577,-0.0384, 0.9928, 0.0358, 0.0132,-0.0445,-0.0031,-2.1107,-1.5090,-0.7847
09-Sep-2020 11:20:40.587,-0.0428, 0.9915, 0.0357, 0.0171,-0.0265,-0.0054,-2.1089,-1.5091,-0.7825
09-Sep-2020 11:20:40.597,-0.0458, 0.9955, 0.0389, 0.0179,-0.0071,-0.0090,-2.1065,-1.5093,-0.7798
09-Sep-2020 11:20:40.607,-0.0479, 1.0021, 0.0393, 0.0195, 0.0007,-0.0086,-2.1034,-1.5094,-0.7766
09-Sep-2020 11:20:40.618,-0.0496, 1.0048, 0.0354, 0.0187,-0.0064,-0.0072,-2.1003,-1.5095,-0.7735
09-Sep-2020 11:20:40.627,-0.0501, 1.0016, 0.0339, 0.0159,-0.0302,-0.0107,-2.0976,-1.5096,-0.7707
09-Sep-2020 11:20:40.637,-0.0449, 0.9968, 0.0354, 0.0073,-0.0655,-0.0109,-2.0954,-1.5097,-0.7682
09-Sep-2020 11:20:40.647,-0.0410, 0.9915, 0.0373,-0.0001,-0.0865,-0.0072,-2.0946,-1.5098,-0.7667
09-Sep-2020 11:20:40.657,-0.0368, 0.9859, 0.0406,-0.0021,-0.0894,-0.0071,-2.0953,-1.5098,-0.7666
09-Sep-2020 11:20:40.667,-0.0288, 0.9843, 0.0416,-0.0023,-0.0749,-0.0043,-2.0961,-1.5098,-0.7665
09-Sep-2020 11:20:40.677,-0.0228, 0.9856, 0.0398, 0.0019,-0.0629, 0.0007,-2.0967,-1.5099,-0.7663
09-Sep-2020 11:20:40.687,-0.0197, 0.9878, 0.0384, 0.0034,-0.0535, 0.0008,-2.0971,-1.5100,-0.7661
09-Sep-2020 11:20:40.696,-0.0235, 0.9883, 0.0393, 0.0046,-0.0505, 0.0049,-2.0973,-1.5101,-0.7657
09-Sep-2020 11:20:40.706,-0.0287, 1.0005, 0.0392, 0.0014,-0.0498, 0.0098,-2.0977,-1.5102,-0.7655
09-Sep-2020 11:20:40.717,-0.0316, 1.0171, 0.0400,-0.0028,-0.0517, 0.0137,-2.0989,-1.5104,-0.7662
09-Sep-2020 11:20:40.726,-0.0359, 1.0145, 0.0352,-0.0089,-0.0659, 0.0186,-2.1010,-1.5106,-0.7679
09-Sep-2020 11:20:40.736,-0.0360, 1.0140, 0.0328,-0.0084,-0.0639, 0.0316,-2.1046,-1.5108,-0.7708
09-Sep-2020 11:20:40.746,-0.0358, 1.0083, 0.0310,-0.0107,-0.0605, 0.0372,-2.1094,-1.5111,-0.7750
09-Sep-2020 11:20:40.756,-0.0355, 1.0003, 0.0330,-0.0116,-0.0540, 0.0417,-2.1153,-1.5115,-0.7803
09-Sep-2020 11:20:40.766,-0.0278, 1.0041, 0.0372,-0.0053,-0.0328, 0.0546,-2.1217,-1.5119,-0.7861
09-Sep-2020 11:20:40.776,-0.0275, 1.0047, 0.0421, 0.0045,-0.0154, 0.0621,-2.1281,-1.5124,-0.7921
09-Sep-2020 11:20:40.786,-0.0276, 1.0060, 0.0503, 0.0005, 0.0032, 0.0631,-2.1339,-1.5131,-0.7979
09-Sep-2020 11:20:40.796,-0.0248, 1.0077, 0.0512,-0.0075, 0.0313, 0.0669,-2.1403,-1.5137,-0.8043
09-Sep-2020 11:20:40.806,-0.0221, 1.0057, 0.0441,-0.0151, 0.0383, 0.0652,-2.1478,-1.5143,-0.8121
09-Sep-2020 11:20:40.816,-0.0198, 1.0030, 0.0418,-0.0194, 0.0373, 0.0678,-2.1564,-1.5149,-0.8211
09-Sep-2020 11:20:40.826,-0.0168, 1.0008, 0.0439,-0.0265, 0.0347, 0.0665,-2.1660,-1.5154,-0.8310
09-Sep-2020 11:20:40.836,-0.0135, 0.9984, 0.0437,-0.0287, 0.0390, 0.0639,-2.1765,-1.5159,-0.8419
09-Sep-2020 11:20:40.845,-0.0111, 0.9942, 0.0410,-0.0314, 0.0448, 0.0523,-2.1872,-1.5163,-0.8530
09-Sep-2020 11:20:40.856,-0.0091, 0.9907, 0.0378,-0.0353, 0.0423, 0.0503,-2.1978,-1.5167,-0.8641
09-Sep-2020 11:20:40.865,-0.0087, 0.9887, 0.0318,-0.0371, 0.0321, 0.0489,-2.2089,-1.5169,-0.8756
09-Sep-2020 11:20:40.875,-0.0084, 0.9887, 0.0286,-0.0345, 0.0182, 0.0409,-2.2201,-1.5172,-0.8871
09-Sep-2020 11:20:40.886,-0.0103, 0.9871, 0.0260,-0.0292, 0.0101, 0.0346,-2.2305,-1.5174,-0.8977
09-Sep-2020 11:20:40.895,-0.0124, 0.9844, 0.0219,-0.0290,-0.0014, 0.0248,-2.2397,-1.5176,-0.9070
09-Sep-2020 11:20:40.905,-0.0137, 0.9825, 0.0223,-0.0249, 0.0065, 0.0148,-2.2476,-1.5177,-0.9149
09-Sep-2020 11:20:40.915,-0.0168, 0.9801, 0.0238,-0.0195, 0.0146, 0.0134,-2.2536,-1.5177,-0.9210
09-Sep-2020 11:20:40.925,-0.0200, 0.9820, 0.0232,-0.0142, 0.0055, 0.0088,-2.2584,-1.5178,-0.9259
09-Sep-2020 11:20:40.935,-0.0205, 0.9841, 0.0237,-0.0018,-0.0055, 0.0046,-2.2619,-1.5179,-0.9295
09-Sep-2020 11:20:40.945,-0.0180, 0.9891, 0.0233, 0.0032,-0.0052, 0.0026,-2.2637,-1.5180,-0.9312
09-Sep-2020 11:20:40.955,-0.0119, 0.9938, 0.0222, 0.0102,-0.0005, 0.0002,-2.2642,-1.5181,-0.9316
09-Sep-2020 11:20:40.965,-0.0058, 0.9945, 0.0218, 0.0210, 0.0165, 0.0099,-2.2634,-1.5183,-0.9308
09-Sep-2020 11:20:40.975,-0.0051, 0.9911, 0.0218, 0.0284, 0.0319, 0.0166,-2.2620,-1.5186,-0.9296
09-Sep-2020 11:20:40.985,-0.0071, 0.9885, 0.0260, 0.0348, 0.0415, 0.0203,-2.2599,-1.5191,-0.9278
09-Sep-2020 11:20:40.995,-0.0106, 0.9951, 0.0370, 0.0369, 0.0500, 0.0225,-2.2572,-1.5196,-0.9254
09-Sep-2020 11:20:41.005,-0.0174, 1.0052, 0.0474, 0.0373, 0.0630, 0.0303,-2.2545,-1.5201,-0.9233
09-Sep-2020 11:20:41.015,-0.0263, 1.0091, 0.0533, 0.0297, 0.0531, 0.0309,-2.2527,-1.5206,-0.9221
09-Sep-2020 11:20:41.025,-0.0323, 1.0083, 0.0549, 0.0139, 0.0172, 0.0258,-2.2522,-1.5212,-0.9221
09-Sep-2020 11:20:41.035,-0.0290, 1.0059, 0.0523, 0.0013,-0.0094, 0.0342,-2.2539,-1.5216,-0.9240
09-Sep-2020 11:20:41.045,-0.0329, 0.9957, 0.0509,-0.0099,-0.0330, 0.0313,-2.2585,-1.5219,-0.9285
09-Sep-2020 11:20:41.055,-0.0212, 0.9986, 0.0560,-0.0226,-0.0618, 0.0384,-2.2650,-1.5222,-0.9346
09-Sep-2020 11:20:41.065,-0.0117, 1.0013, 0.0547,-0.0169,-0.0189, 0.0438,-2.2742,-1.5225,-0.9432
09-Sep-2020 11:20:41.075,-0.0109, 1.0025, 0.0483,-0.0109, 0.0128, 0.0449,-2.2835,-1.5228,-0.9523
09-Sep-2020 11:20:41.085,-0.0093, 0.9985, 0.0433,-0.0106, 0.0415, 0.0415,-2.2920,-1.5232,-0.9610
09-Sep-2020 11:20:41.095,-0.0100, 0.9969, 0.0377,-0.0009, 0.0711, 0.0369,-2.2998,-1.5236,-0.9692
09-Sep-2020 11:20:41.105,-0.0101, 0.9980, 0.0349,-0.0010, 0.0948, 0.0337,-2.3055,-1.5239,-0.9757
09-Sep-2020 11:20:41.115,-0.0095, 0.9986, 0.0336, 0.0006, 0.1125, 0.0328,-2.3103,-1.5242,-0.9814
09-Sep-2020 11:20:41.125,-0.0111, 0.9985, 0.0342,-0.0027, 0.1316, 0.0323,-2.3148,-1.5245,-0.9870
09-Sep-2020 11:20:41.135,-0.0121, 0.9987, 0.0376, 0.0002, 0.1452, 0.0320,-2.3195,-1.5248,-0.9930
09-Sep-2020 11:20:41.145,-0.0126, 0.9983, 0.0397,-0.0012, 0.1408, 0.0334,-2.3236,-1.5251,-0.9984
09-Sep-2020 11:20:41.154,-0.0131, 1.0000, 0.0417,-0.0039, 0.1216, 0.0327,-2.3282,-1.5254,-1.0045
09-Sep-2020 11:20:41.164,-0.0150, 1.0004, 0.0421,-0.0073, 0.0900, 0.0343,-2.3338,-1.5257,-1.0113
09-Sep-2020 11:20:41.174,-0.0165, 0.9980, 0.0419,-0.0135, 0.0512, 0.0285,-2.3405,-1.5260,-1.0189
09-Sep-2020 11:20:41.184,-0.0173, 0.9951, 0.0410,-0.0210, 0.0158, 0.0281,-2.3478,-1.5262,-1.0267
09-Sep-2020 11:20:41.194,-0.0158, 0.9953, 0.0398,-0.0251, 0.0014, 0.0278,-2.3564,-1.5263,-1.0355
09-Sep-2020 11:20:41.204,-0.0150, 0.9943, 0.0368,-0.0199, 0.0028, 0.0299,-2.3658,-1.5264,-1.0448
09-Sep-2020 11:20:41.214,-0.0136, 0.9946, 0.0359,-0.0171, 0.0121, 0.0288,-2.3744,-1.5266,-1.0535
09-Sep-2020 11:20:41.224,-0.0120, 0.9957, 0.0356,-0.0149, 0.0262, 0.0283,-2.3823,-1.5267,-1.0615
09-Sep-2020 11:20:41.234,-0.0105, 0.9950, 0.0357,-0.0102, 0.0372, 0.0246,-2.3898,-1.5269,-1.0693
09-Sep-2020 11:20:41.244,-0.0085, 0.9962, 0.0390,-0.0073, 0.0427, 0.0241,-2.3964,-1.5271,-1.0762
09-Sep-2020 11:20:41.254,-0.0068, 0.9962, 0.0424,-0.0065, 0.0510, 0.0195,-2.4022,-1.5273,-1.0824
09-Sep-2020 11:20:41.264,-0.0065, 0.9981, 0.0441,-0.0096, 0.0475, 0.0154,-2.4072,-1.5274,-1.0879
09-Sep-2020 11:20:41.274,-0.0037, 0.9997, 0.0473,-0.0162, 0.0394, 0.0128,-2.4120,-1.5275,-1.0932
09-Sep-2020 11:20:41.283,-0.0001, 1.0026, 0.0534,-0.0234, 0.0342, 0.0157,-2.4175,-1.5276,-1.0991
09-Sep-2020 11:20:41.294, 0.0020, 1.0040, 0.0558,-0.0312, 0.0299, 0.0204,-2.4245,-1.5276,-1.1064
09-Sep-2020 11:20:41.303, 0.0045, 1.0039, 0.0544,-0.0424, 0.0145, 0.0231,-2.4334,-1.5276,-1.1156
09-Sep-2020 11:20:41.314, 0.0064, 1.0029, 0.0511,-0.0486,-0.0001, 0.0315,-2.4447,-1.5275,-1.1271
09-Sep-2020 11:20:41.323, 0.0082, 1.0014, 0.0495,-0.0544,-0.0051, 0.0403,-2.4585,-1.5274,-1.1409
09-Sep-2020 11:20:41.333, 0.0110, 0.9989, 0.0479,-0.0539,-0.0086, 0.0479,-2.4744,-1.5274,-1.1567
09-Sep-2020 11:20:41.344, 0.0118, 0.9968, 0.0477,-0.0561, 0.0057, 0.0574,-2.4917,-1.5273,-1.1740
09-Sep-2020 11:20:41.353, 0.0142, 0.9950, 0.0467,-0.0537, 0.0176, 0.0636,-2.5107,-1.5273,-1.1931
09-Sep-2020 11:20:41.363, 0.0136, 0.9966, 0.0436,-0.0523, 0.0287, 0.0668,-2.5306,-1.5273,-1.2131
09-Sep-2020 11:20:41.373, 0.0121, 0.9980, 0.0424,-0.0517, 0.0399, 0.0689,-2.5511,-1.5273,-1.2339
09-Sep-2020 11:20:41.383, 0.0111, 0.9993, 0.0425,-0.0503, 0.0529, 0.0718,-2.5720,-1.5273,-1.2552
09-Sep-2020 11:20:41.393, 0.0105, 1.0005, 0.0408,-0.0525, 0.0637, 0.0738,-2.5934,-1.5273,-1.2771
09-Sep-2020 11:20:41.403, 0.0072, 1.0005, 0.0389,-0.0527, 0.0716, 0.0748,-2.6153,-1.5274,-1.2997
09-Sep-2020 11:20:41.413, 0.0053, 1.0016, 0.0378,-0.0489, 0.0743, 0.0783,-2.6371,-1.5273,-1.3222
09-Sep-2020 11:20:41.423, 0.0035, 1.0007, 0.0370,-0.0505, 0.0769, 0.0753,-2.6590,-1.5273,-1.3449
09-Sep-2020 11:20:41.433, 0.0007, 0.9993, 0.0367,-0.0505, 0.0703, 0.0769,-2.6807,-1.5273,-1.3674
09-Sep-2020 11:20:41.443,-0.0017, 0.9970, 0.0366,-0.0475, 0.0631, 0.0750,-2.7027,-1.5273,-1.3901
09-Sep-2020 11:20:41.453,-0.0026, 0.9958, 0.0384,-0.0506, 0.0521, 0.0726,-2.7244,-1.5272,-1.4124
09-Sep-2020 11:20:41.463,-0.0013, 0.9929, 0.0398,-0.0514, 0.0467, 0.0704,-2.7455,-1.5271,-1.4341
09-Sep-2020 11:20:41.473,-0.0011, 0.9919, 0.0395,-0.0512, 0.0479, 0.0694,-2.7662,-1.5270,-1.4552
09-Sep-2020 11:20:41.483,-0.0001, 0.9938, 0.0389,-0.0499, 0.0480, 0.0690,-2.7864,-1.5268,-1.4759
09-Sep-2020 11:20:41.493,-0.0016, 0.9944, 0.0390,-0.0476, 0.0543, 0.0671,-2.8061,-1.5267,-1.4961
09-Sep-2020 11:20:41.503,-0.0039, 0.9928, 0.0386,-0.0453, 0.0581, 0.0634,-2.8250,-1.5265,-1.5156
09-Sep-2020 11:20:41.513,-0.0057, 0.9913, 0.0400,-0.0431, 0.0580, 0.0596,-2.8429,-1.5264,-1.5340
09-Sep-2020 11:20:41.523,-0.0076, 0.9879, 0.0418,-0.0410, 0.0572, 0.0511,-2.8594,-1.5262,-1.5511
09-Sep-2020 11:20:41.533,-0.0074, 0.9873, 0.0425,-0.0343, 0.0559, 0.0425,-2.8738,-1.5260,-1.5661
09-Sep-2020 11:20:41.543,-0.0065, 0.9885, 0.0421,-0.0312, 0.0586, 0.0306,-2.8858,-1.5258,-1.5786
09-Sep-2020 11:20:41.553,-0.0053, 0.9904, 0.0430,-0.0280, 0.0610, 0.0202,-2.8949,-1.5257,-1.5883
09-Sep-2020 11:20:41.562,-0.0049, 0.9903, 0.0426,-0.0261, 0.0590, 0.0085,-2.9015,-1.5255,-1.5956
09-Sep-2020 11:20:41.572,-0.0055, 0.9902, 0.0416,-0.0275, 0.0548, 0.0017,-2.9059,-1.5254,-1.6005
09-Sep-2020 11:20:41.582,-0.0031, 0.9905, 0.0418,-0.0196, 0.0538,-0.0048,-2.9084,-1.5252,-1.6036
09-Sep-2020 11:20:41.592,-0.0001, 0.9914, 0.0426,-0.0167, 0.0497,-0.0107,-2.9092,-1.5250,-1.6049
09-Sep-2020 11:20:41.603, 0.0022, 0.9913, 0.0440,-0.0188, 0.0442,-0.0184,-2.9086,-1.5249,-1.6047
09-Sep-2020 11:20:41.612, 0.0066, 0.9917, 0.0437,-0.0111, 0.0449,-0.0192,-2.9068,-1.5248,-1.6034
09-Sep-2020 11:20:41.622, 0.0096, 0.9934, 0.0436,-0.0090, 0.0422,-0.0194,-2.9045,-1.5247,-1.6015
09-Sep-2020 11:20:41.632, 0.0118, 0.9942, 0.0471,-0.0085, 0.0440,-0.0197,-2.9019,-1.5246,-1.5994
09-Sep-2020 11:20:41.642, 0.0150, 0.9944, 0.0499,-0.0065, 0.0433,-0.0198,-2.8992,-1.5245,-1.5971
09-Sep-2020 11:20:41.652, 0.0187, 0.9968, 0.0532,-0.0073, 0.0425,-0.0173,-2.8964,-1.5245,-1.5947
09-Sep-2020 11:20:41.662, 0.0216, 0.9979, 0.0560,-0.0131, 0.0446,-0.0122,-2.8941,-1.5244,-1.5929
09-Sep-2020 11:20:41.672, 0.0242, 1.0006, 0.0584,-0.0118, 0.0454,-0.0085,-2.8929,-1.5244,-1.5921
09-Sep-2020 11:20:41.682, 0.0248, 1.0018, 0.0584,-0.0148, 0.0473,-0.0028,-2.8928,-1.5243,-1.5924
09-Sep-2020 11:20:41.692, 0.0226, 1.0005, 0.0587,-0.0235, 0.0454, 0.0067,-2.8943,-1.5242,-1.5944
09-Sep-2020 11:20:41.702, 0.0183, 0.9977, 0.0570,-0.0239, 0.0399, 0.0114,-2.8979,-1.5241,-1.5984
09-Sep-2020 11:20:41.712, 0.0122, 0.9992, 0.0583,-0.0292, 0.0348, 0.0168,-2.9028,-1.5239,-1.6037
09-Sep-2020 11:20:41.722, 0.0092, 1.0017, 0.0588,-0.0403, 0.0374, 0.0198,-2.9089,-1.5237,-1.6101
09-Sep-2020 11:20:41.732, 0.0090, 1.0030, 0.0589,-0.0474, 0.0411, 0.0186,-2.9159,-1.5234,-1.6176
09-Sep-2020 11:20:41.741, 0.0093, 1.0012, 0.0569,-0.0527, 0.0353, 0.0181,-2.9233,-1.5231,-1.6254
09-Sep-2020 11:20:41.752, 0.0089, 0.9982, 0.0561,-0.0573, 0.0328, 0.0172,-2.9311,-1.5226,-1.6334
09-Sep-2020 11:20:41.762, 0.0091, 0.9945, 0.0559,-0.0602, 0.0271, 0.0189,-2.9388,-1.5222,-1.6415
09-Sep-2020 11:20:41.771, 0.0087, 0.9955, 0.0567,-0.0613, 0.0278, 0.0226,-2.9468,-1.5217,-1.6497
09-Sep-2020 11:20:41.781, 0.0063, 0.9950, 0.0568,-0.0578, 0.0274, 0.0203,-2.9551,-1.5212,-1.6583
09-Sep-2020 11:20:41.791, 0.0038, 0.9940, 0.0564,-0.0597, 0.0226, 0.0251,-2.9631,-1.5207,-1.6666
09-Sep-2020 11:20:41.801, 0.0010, 0.9933, 0.0569,-0.0591, 0.0079, 0.0243,-2.9715,-1.5202,-1.6752
09-Sep-2020 11:20:41.812,-0.0030, 0.9927, 0.0568,-0.0652,-0.0020, 0.0220,-2.9797,-1.5197,-1.6835
09-Sep-2020 11:20:41.821,-0.0044, 0.9919, 0.0540,-0.0665,-0.0087, 0.0195,-2.9875,-1.5191,-1.6914
09-Sep-2020 11:20:41.831,-0.0053, 0.9924, 0.0520,-0.0638,-0.0128, 0.0145,-2.9949,-1.5186,-1.6986
09-Sep-2020 11:20:41.841,-0.0073, 0.9915, 0.0516,-0.0583,-0.0144, 0.0118,-3.0013,-1.5180,-1.7050
09-Sep-2020 11:20:41.851,-0.0077, 0.9908, 0.0512,-0.0513,-0.0096, 0.0066,-3.0070,-1.5175,-1.7104
09-Sep-2020 11:20:41.861,-0.0080, 0.9916, 0.0529,-0.0491,-0.0081, 0.0009,-3.0112,-1.5171,-1.7146
09-Sep-2020 11:20:41.871,-0.0089, 0.9913, 0.0542,-0.0497,-0.0053,-0.0048,-3.0142,-1.5166,-1.7175
09-Sep-2020 11:20:41.881,-0.0105, 0.9904, 0.0567,-0.0432,-0.0111,-0.0124,-3.0161,-1.5162,-1.7193
09-Sep-2020 11:20:41.891,-0.0106, 0.9903, 0.0580,-0.0371,-0.0147,-0.0138,-3.0165,-1.5158,-1.7196
09-Sep-2020 11:20:41.901,-0.0102, 0.9916, 0.0604,-0.0361,-0.0174,-0.0156,-3.0163,-1.5154,-1.7193
09-Sep-2020 11:20:41.911,-0.0117, 0.9927, 0.0619,-0.0356,-0.0251,-0.0188,-3.0156,-1.5151,-1.7184
09-Sep-2020 11:20:41.920,-0.0127, 0.9925, 0.0636,-0.0356,-0.0305,-0.0201,-3.0145,-1.5148,-1.7171
09-Sep-2020 11:20:41.930,-0.0127, 0.9930, 0.0654,-0.0323,-0.0362,-0.0219,-3.0134,-1.5145,-1.7156
09-Sep-2020 11:20:41.940,-0.0117, 0.9933, 0.0675,-0.0302,-0.0449,-0.0256,-3.0118,-1.5142,-1.7137
09-Sep-2020 11:20:41.951,-0.0085, 0.9955, 0.0708,-0.0295,-0.0520,-0.0303,-3.0096,-1.5139,-1.7110
09-Sep-2020 11:20:41.961,-0.0046, 0.9984, 0.0729,-0.0321,-0.0554,-0.0343,-3.0066,-1.5136,-1.7075
09-Sep-2020 11:20:41.971,-0.0030, 0.9988, 0.0735,-0.0342,-0.0586,-0.0343,-3.0031,-1.5133,-1.7034
09-Sep-2020 11:20:41.980,-0.0044, 0.9964, 0.0734,-0.0320,-0.0642,-0.0379,-2.9995,-1.5130,-1.6992
09-Sep-2020 11:20:41.990,-0.0050, 0.9926, 0.0732,-0.0343,-0.0740,-0.0433,-2.9956,-1.5126,-1.6946
09-Sep-2020 11:20:42.000,-0.0050, 0.9906, 0.0745,-0.0339,-0.0835,-0.0484,-2.9912,-1.5123,-1.6895
09-Sep-2020 11:20:42.010,-0.0014, 0.9898, 0.0768,-0.0337,-0.0925,-0.0521,-2.9860,-1.5119,-1.6834
09-Sep-2020 11:20:42.021, 0.0016, 0.9899, 0.0779,-0.0329,-0.0916,-0.0550,-2.9803,-1.5116,-1.6768
09-Sep-2020 11:20:42.030, 0.0058, 0.9895, 0.0782,-0.0330,-0.0892,-0.0576,-2.9741,-1.5112,-1.6697
