Timestamp,accelX,accelY,accelZ,gyroX(rad/s),gyroY(rad/s),gyroZ(rad/s),Roll(rads),Pitch(rads),Yaw(rads)
09-Sep-2020 11:12:36.070,-0.3457,-0.8223,-0.5306,-0.5626, 0.0098,-0.0741,-0.6277, 0.9390,-1.9549
09-Sep-2020 11:12:36.080,-0.3303,-0.7665,-0.5437,-0.7128, 0.0069,-0.0236,-0.6223, 0.9348,-1.9613
09-Sep-2020 11:12:36.090,-0.3250,-0.7177,-0.5474,-0.8472,-0.0302, 0.0100,-0.6166, 0.9292,-1.9684
09-Sep-2020 11:12:36.100,-0.3336,-0.6819,-0.6116,-0.9229,-0.2877, 0.0546,-0.6109, 0.9222,-1.9762
09-Sep-2020 11:12:36.110,-0.3576,-0.6611,-0.6597,-0.9823,-0.6969, 0.0842,-0.6076, 0.9144,-1.9840
09-Sep-2020 11:12:36.120,-0.3767,-0.6415,-0.6051,-1.0529,-1.0076, 0.1190,-0.6083, 0.9058,-1.9919
09-Sep-2020 11:12:36.130,-0.3566,-0.6676,-0.5231,-1.0837,-1.1433, 0.2212,-0.6120, 0.8965,-1.9997
09-Sep-2020 11:12:36.140,-0.3142,-0.6937,-0.4677,-1.0453,-1.1091, 0.3573,-0.6179, 0.8865,-2.0066
09-Sep-2020 11:12:36.150,-0.2695,-0.6809,-0.4647,-0.9105,-1.0649, 0.5026,-0.6253, 0.8760,-2.0114
09-Sep-2020 11:12:36.160,-0.2360,-0.6401,-0.5044,-0.7286,-0.9803, 0.5959,-0.6344, 0.8658,-2.0133
09-Sep-2020 11:12:36.170,-0.2208,-0.5829,-0.5112,-0.4717,-0.9959, 0.6399,-0.6449, 0.8565,-2.0125
09-Sep-2020 11:12:36.180,-0.2404,-0.5471,-0.5446,-0.2257,-1.0320, 0.6248,-0.6575, 0.8489,-2.0090
09-Sep-2020 11:12:36.190,-0.3012,-0.5404,-0.5616,-0.0417,-1.0316, 0.5599,-0.6717, 0.8433,-2.0037
09-Sep-2020 11:12:36.200,-0.3657,-0.5555,-0.5702,-0.0353,-0.8861, 0.4416,-0.6864, 0.8394,-1.9976
09-Sep-2020 11:12:36.210,-0.4311,-0.5323,-0.5453,-0.0353,-0.8861, 0.4416,-0.6992, 0.8364,-1.9926
09-Sep-2020 11:12:36.220,-0.4958,-0.6392,-0.6814, 0.2711,-0.3427, 0.2009,-0.7107, 0.8347,-1.9884
09-Sep-2020 11:12:36.230,-0.5250,-0.7298,-0.6228, 0.4601, 0.4134, 0.2350,-0.7178, 0.8353,-1.9832
09-Sep-2020 11:12:36.240,-0.4119,-0.7157,-0.4688, 0.3591, 0.7229, 0.4684,-0.7194, 0.8370,-1.9760
09-Sep-2020 11:12:36.249,-0.3787,-0.7044,-0.3836, 0.1385, 0.5144, 0.6673,-0.7191, 0.8365,-1.9673
09-Sep-2020 11:12:36.260,-0.4978,-0.7230,-0.4415, 0.0663, 0.3705, 0.6731,-0.7205, 0.8333,-1.9584
09-Sep-2020 11:12:36.269,-0.5750,-0.7636,-0.4837, 0.1382, 0.4010, 0.5732,-0.7228, 0.8295,-1.9502
09-Sep-2020 11:12:36.279,-0.5272,-0.7547,-0.5184, 0.2556, 0.2752, 0.5033,-0.7247, 0.8268,-1.9423
09-Sep-2020 11:12:36.289,-0.5046,-0.7513,-0.5301, 0.3624, 0.1179, 0.4316,-0.7280, 0.8253,-1.9342
09-Sep-2020 11:12:36.299,-0.5566,-0.7989,-0.4967, 0.4993, 0.1225, 0.2239,-0.7328, 0.8252,-1.9259
09-Sep-2020 11:12:36.309,-0.6353,-0.9066,-0.4684, 0.6021, 0.2331, 0.0753,-0.7370, 0.8273,-1.9184
09-Sep-2020 11:12:36.319,-0.4932,-0.9644,-0.4355, 0.5845, 0.2434, 0.0786,-0.7399, 0.8311,-1.9115
09-Sep-2020 11:12:36.329,-0.4743,-0.9275,-0.4228, 0.5077, 0.1382, 0.0313,-0.7425, 0.8348,-1.9048
09-Sep-2020 11:12:36.339,-0.5504,-0.8990,-0.4665, 0.4552,-0.0595,-0.0095,-0.7454, 0.8383,-1.8992
09-Sep-2020 11:12:36.349,-0.5317,-0.9102,-0.4962, 0.4336,-0.3091,-0.0514,-0.7495, 0.8417,-1.8945
09-Sep-2020 11:12:36.359,-0.5683,-0.9437,-0.5199, 0.3975,-0.4560,-0.0720,-0.7555, 0.8452,-1.8906
09-Sep-2020 11:12:36.369,-0.5281,-0.9699,-0.4829, 0.3186,-0.4794,-0.0208,-0.7626, 0.8484,-1.8871
09-Sep-2020 11:12:36.379,-0.5581,-0.9750,-0.4520, 0.2786,-0.3269, 0.0379,-0.7697, 0.8509,-1.8838
09-Sep-2020 11:12:36.389,-0.5684,-0.9608,-0.4503, 0.3153, 0.0888, 0.1721,-0.7755, 0.8526,-1.8803
09-Sep-2020 11:12:36.399,-0.5107,-0.9150,-0.4466, 0.3235, 0.5935, 0.4378,-0.7786, 0.8535,-1.8748
09-Sep-2020 11:12:36.409,-0.4384,-0.9680,-0.4111, 0.0767, 0.6761, 0.6514,-0.7790, 0.8526,-1.8668
09-Sep-2020 11:12:36.419,-0.5392,-0.9287,-0.3780,-0.2927, 0.4406, 0.6017,-0.7782, 0.8487,-1.8592
09-Sep-2020 11:12:36.429,-0.5215,-0.9107,-0.4205,-0.4877, 0.5542, 0.6692,-0.7764, 0.8423,-1.8555
09-Sep-2020 11:12:36.439,-0.4174,-0.8382,-0.4174,-0.4877, 0.5542, 0.6692,-0.7722, 0.8344,-1.8534
09-Sep-2020 11:12:36.449,-0.4555,-0.6969,-0.3469,-0.5597, 1.4087, 0.4539,-0.7631, 0.8263,-1.8524
09-Sep-2020 11:12:36.459,-0.4323,-0.6199,-0.3451,-0.5264, 1.4415, 0.1775,-0.7488, 0.8193,-1.8531
09-Sep-2020 11:12:36.469,-0.4385,-0.6006,-0.4258,-0.4579, 1.3398,-0.0918,-0.7322, 0.8142,-1.8562
09-Sep-2020 11:12:36.479,-0.4351,-0.6318,-0.4560,-0.3612, 1.2377,-0.2673,-0.7151, 0.8113,-1.8614
09-Sep-2020 11:12:36.489,-0.4063,-0.6656,-0.5102,-0.1561, 1.1848,-0.4243,-0.6983, 0.8103,-1.8676
09-Sep-2020 11:12:36.499,-0.3953,-0.7180,-0.5853, 0.0604, 1.2559,-0.5509,-0.6821, 0.8118,-1.8736
09-Sep-2020 11:12:36.508,-0.3900,-0.7423,-0.5606, 0.2583, 1.2224,-0.7207,-0.6656, 0.8157,-1.8792
09-Sep-2020 11:12:36.518,-0.4171,-0.6570,-0.5647, 0.4811, 1.1549,-0.9226,-0.6491, 0.8221,-1.8852
09-Sep-2020 11:12:36.528,-0.4221,-0.6122,-0.5881, 0.8330, 1.0408,-1.1350,-0.6329, 0.8315,-1.8916
09-Sep-2020 11:12:36.538,-0.4185,-0.6472,-0.6364, 1.2073, 0.9329,-1.3649,-0.6178, 0.8448,-1.8979
09-Sep-2020 11:12:36.548,-0.3681,-0.7173,-0.5870, 1.5069, 0.7989,-1.5329,-0.6037, 0.8624,-1.9042
09-Sep-2020 11:12:36.558,-0.3208,-0.7106,-0.7259, 2.0238, 0.0515,-1.6934,-0.5920, 0.8837,-1.9102
09-Sep-2020 11:12:36.568,-0.3289,-0.6944,-0.7716, 2.1965,-0.2787,-1.9094,-0.5874, 0.9097,-1.9148
09-Sep-2020 11:12:36.578,-0.3343,-0.7289,-0.5288, 2.1936,-0.2657,-1.9966,-0.5852, 0.9382,-1.9207
09-Sep-2020 11:12:36.588,-0.3310,-0.8171,-0.4207, 1.9594, 0.1205,-1.9554,-0.5816, 0.9672,-1.9284
09-Sep-2020 11:12:36.598,-0.3628,-0.9042,-0.2635, 1.3924, 0.4607,-1.7057,-0.5723, 0.9939,-1.9385
09-Sep-2020 11:12:36.608,-0.3129,-1.0054,-0.2997, 0.9585, 0.7786,-1.5517,-0.5570, 1.0149,-1.9513
09-Sep-2020 11:12:36.618,-0.3219,-0.9841,-0.2540, 0.8275, 1.0111,-1.4024,-0.5354, 1.0310,-1.9670
09-Sep-2020 11:12:36.628,-0.3022,-0.9147,-0.6167, 0.9021, 0.8044,-1.3522,-0.5116, 1.0451,-1.9831
09-Sep-2020 11:12:36.638,-0.3247,-0.9445,-0.6379, 0.9730, 0.5037,-1.1806,-0.4910, 1.0594,-1.9978
09-Sep-2020 11:12:36.648,-0.2583,-0.9538,-0.6053, 0.8146, 0.3092,-1.1354,-0.4750, 1.0733,-2.0102
09-Sep-2020 11:12:36.658,-0.2874,-0.9280,-0.5241, 0.5913, 0.1015,-1.0614,-0.4601, 1.0856,-2.0236
09-Sep-2020 11:12:36.668,-0.2438,-0.9467,-0.5124, 0.4531, 0.0060,-0.9666,-0.4460, 1.0955,-2.0383
09-Sep-2020 11:12:36.678,-0.2268,-0.9962,-0.3841, 0.3300, 0.1517,-0.8864,-0.4326, 1.1037,-2.0531
09-Sep-2020 11:12:36.688,-0.2193,-0.9682,-0.2604, 0.2304, 0.3238,-0.7855,-0.4180, 1.1104,-2.0678
09-Sep-2020 11:12:36.698,-0.1873,-0.9715,-0.2311, 0.1685, 0.4175,-0.6843,-0.4024, 1.1156,-2.0816
09-Sep-2020 11:12:36.707,-0.1892,-0.9663,-0.2533, 0.0691, 0.5470,-0.6021,-0.3867, 1.1198,-2.0944
09-Sep-2020 11:12:36.717,-0.1940,-0.9354,-0.1717, 0.0337, 0.7330,-0.5147,-0.3704, 1.1227,-2.1065
09-Sep-2020 11:12:36.728,-0.1781,-0.9404,-0.2250, 0.1905, 0.6248,-0.4162,-0.3539, 1.1250,-2.1169
09-Sep-2020 11:12:36.737,-0.1464,-0.9245,-0.3906, 0.3986, 0.2771,-0.3478,-0.3412, 1.1282,-2.1243
09-Sep-2020 11:12:36.747,-0.1006,-0.9285,-0.4289, 0.4989,-0.0795,-0.2713,-0.3344, 1.1330,-2.1288
09-Sep-2020 11:12:36.757,-0.0245,-1.0369,-0.7016, 0.5113,-1.8922,-0.0293,-0.3353, 1.1388,-2.1301
09-Sep-2020 11:12:36.767, 0.0629,-1.0579,-1.1009,-0.1999,-2.8340, 0.0791,-0.3545, 1.1430,-2.1283
09-Sep-2020 11:12:36.777, 0.2119,-0.9776,-0.4910,-0.7722,-2.9638, 0.0717,-0.3826, 1.1407,-2.1290
09-Sep-2020 11:12:36.787,-0.0157,-0.9033,-0.0749,-1.3239,-2.0834,-0.0008,-0.4073, 1.1332,-2.1341
09-Sep-2020 11:12:36.797,-0.0277,-0.8186, 0.0600,-1.6752,-1.0430,-0.1952,-0.4165, 1.1214,-2.1464
09-Sep-2020 11:12:36.807,-0.0096,-0.9007,-0.0427,-1.8613,-0.2067,-0.4480,-0.4098, 1.1070,-2.1657
09-Sep-2020 11:12:36.817,-0.0448,-0.9094,-0.2137,-1.8638, 0.3171,-0.6562,-0.3901, 1.0918,-2.1903
09-Sep-2020 11:12:36.827,-0.1089,-0.8618,-0.3218,-1.8447, 0.7437,-0.8105,-0.3628, 1.0769,-2.2176
09-Sep-2020 11:12:36.837,-0.1731,-0.8353,-0.3124,-1.7475, 0.8701,-0.8833,-0.3306, 1.0624,-2.2461
09-Sep-2020 11:12:36.847,-0.1841,-0.7861,-0.4785,-1.4581, 0.4648,-0.9321,-0.2984, 1.0487,-2.2737
09-Sep-2020 11:12:36.857,-0.1698,-0.7697,-0.6552,-1.0704,-0.1409,-0.9134,-0.2718, 1.0375,-2.2993
09-Sep-2020 11:12:36.867,-0.1678,-0.8246,-0.6855,-0.6764,-0.5773,-0.8627,-0.2538, 1.0296,-2.3217
09-Sep-2020 11:12:36.877,-0.1955,-0.8863,-0.6434,-0.3913,-0.9906,-0.7615,-0.2432, 1.0251,-2.3408
09-Sep-2020 11:12:36.887,-0.1924,-0.8752,-0.5515,-0.2740,-1.2729,-0.5770,-0.2396, 1.0230,-2.3566
09-Sep-2020 11:12:36.897,-0.1797,-0.9070,-0.4098,-0.3247,-1.1467,-0.3545,-0.2418, 1.0216,-2.3684
09-Sep-2020 11:12:36.907,-0.1723,-0.9482,-0.2646,-0.4984,-0.7450,-0.0999,-0.2464, 1.0193,-2.3763
09-Sep-2020 11:12:36.917,-0.1928,-0.9246,-0.1875,-0.6600,-0.1836, 0.0851,-0.2502, 1.0147,-2.3804
09-Sep-2020 11:12:36.927,-0.2137,-0.8688,-0.2045,-0.7309, 0.3043, 0.1598,-0.2508, 1.0083,-2.3819
09-Sep-2020 11:12:36.937,-0.1901,-0.8439,-0.2830,-0.6867, 0.5511, 0.1862,-0.2477, 1.0009,-2.3822
09-Sep-2020 11:12:36.946,-0.1523,-0.8676,-0.3940,-0.5283, 0.5513, 0.2054,-0.2427, 0.9939,-2.3817
09-Sep-2020 11:12:36.956,-0.1325,-0.8630,-0.4786,-0.3608, 0.4034, 0.2133,-0.2386, 0.9884,-2.3802
09-Sep-2020 11:12:36.966,-0.1290,-0.8009,-0.4884,-0.3086, 0.1604, 0.1868,-0.2366, 0.9843,-2.3780
09-Sep-2020 11:12:36.976,-0.1227,-0.7793,-0.4679,-0.3145,-0.0268, 0.1932,-0.2367, 0.9809,-2.3759
09-Sep-2020 11:12:36.986,-0.1493,-0.7887,-0.4164,-0.3272, 0.0050, 0.2333,-0.2387, 0.9774,-2.3736
09-Sep-2020 11:12:36.996,-0.1910,-0.7898,-0.3680,-0.3187, 0.1749, 0.2534,-0.2408, 0.9737,-2.3709
09-Sep-2020 11:12:37.006,-0.1901,-0.7962,-0.3537,-0.2340, 0.3982, 0.2392,-0.2417, 0.9701,-2.3678
09-Sep-2020 11:12:37.016,-0.1626,-0.8268,-0.3799,-0.1129, 0.5528, 0.2426,-0.2404, 0.9673,-2.3645
09-Sep-2020 11:12:37.026,-0.1075,-0.8894,-0.4242, 0.0088, 0.5580, 0.2876,-0.2381, 0.9656,-2.3607
09-Sep-2020 11:12:37.036,-0.1236,-0.8956,-0.4594, 0.1205, 0.6146, 0.3101,-0.2367, 0.9651,-2.3556
09-Sep-2020 11:12:37.046,-0.1696,-0.8511,-0.4598, 0.1352, 0.7283, 0.4087,-0.2355, 0.9655,-2.3496
09-Sep-2020 11:12:37.056,-0.1578,-0.9186,-0.4029,-0.0416, 1.1941, 0.4990,-0.2342, 0.9657,-2.3421
09-Sep-2020 11:12:37.066,-0.1713,-0.9077,-0.3262,-0.3908, 1.6564, 0.5604,-0.2292, 0.9640,-2.3337
09-Sep-2020 11:12:37.076,-0.1924,-0.7906,-0.3915,-0.4928, 1.9467, 0.5439,-0.2195, 0.9592,-2.3256
09-Sep-2020 11:12:37.086,-0.1993,-0.7363,-0.5689,-0.2754, 2.0345, 0.4333,-0.2064, 0.9536,-2.3181
09-Sep-2020 11:12:37.096,-0.1735,-0.6728,-0.7048, 0.0713, 1.8145, 0.1825,-0.1916, 0.9501,-2.3118
09-Sep-2020 11:12:37.105,-0.1436,-0.6345,-0.7747, 0.4619, 1.5396, 0.0028,-0.1763, 0.9505,-2.3083
09-Sep-2020 11:12:37.115,-0.0741,-0.7180,-0.7783, 0.6439, 1.4734,-0.1528,-0.1622, 0.9550,-2.3068
09-Sep-2020 11:12:37.126,-0.0659,-0.7542,-0.7173, 0.3374, 1.0941,-0.3705,-0.1470, 0.9613,-2.3077
09-Sep-2020 11:12:37.136, 0.0295,-0.6046,-0.9984,-0.1935, 0.2978,-0.7738,-0.1317, 0.9650,-2.3134
09-Sep-2020 11:12:37.145, 0.0956,-0.5023,-1.1726,-0.5837,-0.2430,-1.0799,-0.1174, 0.9642,-2.3270
09-Sep-2020 11:12:37.155, 0.0493,-0.7982,-0.8975,-0.7771,-0.4404,-0.8867,-0.1040, 0.9597,-2.3460
09-Sep-2020 11:12:37.165, 0.0165,-1.0439,-0.6565,-0.8513,-0.4864,-0.5267,-0.0950, 0.9529,-2.3623
09-Sep-2020 11:12:37.175,-0.0068,-1.0350,-0.5968,-0.8345,-0.5020,-0.1606,-0.0916, 0.9450,-2.3725
09-Sep-2020 11:12:37.185,-0.0280,-1.0159,-0.5770,-0.8116,-0.5209, 0.1933,-0.0935, 0.9369,-2.3764
09-Sep-2020 11:12:37.195,-0.0303,-1.0038,-0.5580,-0.8889,-0.4187, 0.4206,-0.1001, 0.9287,-2.3745
09-Sep-2020 11:12:37.205,-0.0059,-0.8927,-0.4990,-1.0196,-0.2709, 0.4330,-0.1084, 0.9195,-2.3693
09-Sep-2020 11:12:37.215,-0.0056,-0.7340,-0.4775,-1.0932,-0.1611, 0.2040,-0.1152, 0.9090,-2.3642
09-Sep-2020 11:12:37.225, 0.0079,-0.6169,-0.5398,-1.0735,-0.1842,-0.1758,-0.1178, 0.8980,-2.3630
09-Sep-2020 11:12:37.235, 0.0726,-0.5843,-0.6067,-1.0800,-0.3617,-0.5593,-0.1162, 0.8876,-2.3676
09-Sep-2020 11:12:37.245, 0.0970,-0.5954,-0.6526,-1.2119,-0.6230,-0.7796,-0.1119, 0.8775,-2.3780
09-Sep-2020 11:12:37.255, 0.0192,-0.6273,-0.6789,-1.3815,-0.8192,-0.8496,-0.1075, 0.8663,-2.3918
09-Sep-2020 11:12:37.265,-0.0480,-0.6783,-0.6505,-1.4858,-0.8065,-0.8614,-0.1042, 0.8536,-2.4067
09-Sep-2020 11:12:37.275,-0.0304,-0.7151,-0.6238,-1.5281,-0.8500,-0.8961,-0.1010, 0.8398,-2.4218
09-Sep-2020 11:12:37.285, 0.0145,-0.6812,-0.6804,-1.5666,-1.0441,-0.9395,-0.0983, 0.8256,-2.4371
09-Sep-2020 11:12:37.295,-0.0070,-0.6765,-0.7009,-1.5654,-1.2198,-0.9763,-0.0972, 0.8110,-2.4529
09-Sep-2020 11:12:37.305,-0.0728,-0.6761,-0.7220,-1.5545,-1.3349,-0.9697,-0.0978, 0.7965,-2.4688
09-Sep-2020 11:12:37.315,-0.1345,-0.6939,-0.7151,-1.5889,-1.2936,-0.8988,-0.0998, 0.7821,-2.4845
09-Sep-2020 11:12:37.325,-0.1806,-0.7441,-0.6933,-1.6693,-1.1647,-0.7717,-0.1024, 0.7672,-2.4991
09-Sep-2020 11:12:37.335,-0.2084,-0.7635,-0.7219,-1.7180,-1.1276,-0.6081,-0.1053, 0.7515,-2.5118
09-Sep-2020 11:12:37.344,-0.2184,-0.7701,-0.8138,-1.6614,-1.2141,-0.4278,-0.1094, 0.7353,-2.5224
09-Sep-2020 11:12:37.354,-0.2222,-0.7609,-0.8987,-1.4980,-1.3862,-0.2426,-0.1162, 0.7194,-2.5304
09-Sep-2020 11:12:37.364,-0.2290,-0.7411,-0.9138,-1.4980,-1.3862,-0.2426,-0.1266, 0.7050,-2.5358
09-Sep-2020 11:12:37.374,-0.2285,-0.7201,-0.8440,-0.9417,-1.5864, 0.1269,-0.1407, 0.6928,-2.5384
09-Sep-2020 11:12:37.384,-0.2055,-0.7634,-0.6672,-0.7285,-1.1983, 0.1876,-0.1561, 0.6833,-2.5386
09-Sep-2020 11:12:37.394,-0.1448,-0.7315,-0.5592,-0.6849,-0.6820, 0.1918,-0.1686, 0.6758,-2.5377
09-Sep-2020 11:12:37.404,-0.2458,-0.6255,-0.5999,-0.7016,-0.2345, 0.1607,-0.1760, 0.6688,-2.5367
09-Sep-2020 11:12:37.414,-0.2572,-0.6129,-0.7198,-0.6218,-0.0490, 0.0618,-0.1788, 0.6617,-2.5362
09-Sep-2020 11:12:37.424,-0.2289,-0.5297,-0.8452,-0.3858,-0.0254,-0.1168,-0.1791, 0.6557,-2.5368
09-Sep-2020 11:12:37.434,-0.2139,-0.5075,-0.8799,-0.0640,-0.0729,-0.3006,-0.1781, 0.6522,-2.5389
09-Sep-2020 11:12:37.444,-0.2002,-0.5447,-0.8235, 0.1771, 0.0555,-0.3780,-0.1765, 0.6521,-2.5426
09-Sep-2020 11:12:37.454,-0.2030,-0.5826,-0.7528, 0.2766, 0.2161,-0.3708,-0.1734, 0.6544,-2.5467
09-Sep-2020 11:12:37.464,-0.2274,-0.6051,-0.7420, 0.2787, 0.3838,-0.3481,-0.1689, 0.6577,-2.5506
09-Sep-2020 11:12:37.474,-0.2308,-0.5932,-0.7487, 0.2015, 0.5532,-0.2982,-0.1629, 0.6610,-2.5542
09-Sep-2020 11:12:37.484,-0.2149,-0.6154,-0.7382, 0.0871, 0.8545,-0.2545,-0.1553, 0.6634,-2.5575
09-Sep-2020 11:12:37.494,-0.1748,-0.6359,-0.7480,-0.0272, 1.2000,-0.1615,-0.1450, 0.6647,-2.5604
09-Sep-2020 11:12:37.504,-0.1278,-0.6639,-0.7661,-0.1939, 1.4193,-0.0010,-0.1320, 0.6646,-2.5623
09-Sep-2020 11:12:37.514,-0.1124,-0.6793,-0.7536,-0.1939, 1.4193,-0.0010,-0.1177, 0.6627,-2.5625
09-Sep-2020 11:12:37.524,-0.1356,-0.6630,-0.7242,-0.6143, 1.8618, 0.2658,-0.1025, 0.6585,-2.5613
09-Sep-2020 11:12:37.533,-0.1412,-0.6697,-0.6921,-0.7949, 2.1556, 0.4162,-0.0856, 0.6522,-2.5586
09-Sep-2020 11:12:37.544,-0.1470,-0.7640,-0.6525,-1.0831, 2.4570, 0.5055,-0.0670, 0.6440,-2.5541
09-Sep-2020 11:12:37.554,-0.2590,-0.7397,-0.4996,-1.4466, 3.7598, 0.3857,-0.0448, 0.6330,-2.5488
09-Sep-2020 11:12:37.564,-0.2365,-0.4880,-0.3090,-2.1616, 4.8295, 0.4757,-0.0105, 0.6181,-2.5442
09-Sep-2020 11:12:37.573, 0.0213,-0.3768,-0.3261,-2.6255, 4.8320, 0.3819, 0.0334, 0.5969,-2.5381
09-Sep-2020 11:12:37.583, 0.0052,-0.4303,-0.7197,-2.7762, 3.9861, 0.2752, 0.0774, 0.5712,-2.5318
09-Sep-2020 11:12:37.593,-0.0038,-0.4857,-0.9539,-2.7435, 2.8484, 0.2070, 0.1135, 0.5442,-2.5253
09-Sep-2020 11:12:37.603,-0.0614,-0.4872,-1.0495,-2.5528, 1.8376, 0.1120, 0.1387, 0.5175,-2.5189
09-Sep-2020 11:12:37.613,-0.1261,-0.4665,-1.1022,-2.2190, 1.0168,-0.0264, 0.1544, 0.4927,-2.5134
09-Sep-2020 11:12:37.623,-0.1662,-0.4542,-1.1278,-1.9080, 0.4802,-0.1570, 0.1629, 0.4708,-2.5097
09-Sep-2020 11:12:37.633,-0.1866,-0.4743,-1.0613,-1.7121, 0.3685,-0.2584, 0.1671, 0.4518,-2.5078
09-Sep-2020 11:12:37.643,-0.1955,-0.4653,-0.9748,-1.6717, 0.3568,-0.3845, 0.1706, 0.4346,-2.5074
09-Sep-2020 11:12:37.653,-0.1427,-0.4221,-1.0124,-1.6325,-0.0141,-0.3617, 0.1742, 0.4176,-2.5082
09-Sep-2020 11:12:37.663,-0.0509,-0.4359,-1.1435,-1.4700,-0.5498,-0.2741, 0.1742, 0.4011,-2.5089
09-Sep-2020 11:12:37.673,-0.0239,-0.4363,-1.2066,-1.2483,-1.0072,-0.2079, 0.1689, 0.3863,-2.5090
09-Sep-2020 11:12:37.683,-0.0453,-0.3976,-1.1927,-1.1652,-1.3656,-0.1131, 0.1588, 0.3737,-2.5089
09-Sep-2020 11:12:37.693,-0.0971,-0.4144,-1.1463,-1.1953,-1.4812,-0.0399, 0.1451, 0.3620,-2.5082
09-Sep-2020 11:12:37.703,-0.1723,-0.4474,-1.1021,-1.1953,-1.4812,-0.0399, 0.1300, 0.3502,-2.5069
09-Sep-2020 11:12:37.713,-0.2390,-0.4552,-1.0795,-1.3819,-1.2206,-0.1651, 0.1161, 0.3375,-2.5057
09-Sep-2020 11:12:37.723,-0.2329,-0.4471,-1.1284,-1.3565,-1.4096,-0.2195, 0.1037, 0.3238,-2.5058
09-Sep-2020 11:12:37.732,-0.1429,-0.4721,-1.2746,-1.0939,-1.8895,-0.1400, 0.0897, 0.3104,-2.5065
09-Sep-2020 11:12:37.743,-0.0727,-0.4657,-1.3566,-0.6784,-2.2814,-0.0110, 0.0711, 0.2996,-2.5070
09-Sep-2020 11:12:37.752,-0.0328,-0.4402,-1.3204,-0.2631,-2.3801, 0.1921, 0.0485, 0.2928,-2.5065
09-Sep-2020 11:12:37.762, 0.0141,-0.5081,-1.2258, 0.0644,-2.2012, 0.4459, 0.0243, 0.2903,-2.5043
09-Sep-2020 11:12:37.772,-0.0011,-0.5532,-1.1039, 0.2183,-1.8794, 0.6256, 0.0012, 0.2909,-2.4997
09-Sep-2020 11:12:37.782,-0.0502,-0.5516,-0.9663, 0.1836,-1.5137, 0.7523,-0.0194, 0.2929,-2.4931
09-Sep-2020 11:12:37.792,-0.0760,-0.5790,-0.8322, 0.0297,-1.1170, 0.8905,-0.0367, 0.2945,-2.4852
09-Sep-2020 11:12:37.802,-0.0842,-0.6061,-0.7120,-0.2455,-0.7784, 1.0305,-0.0506, 0.2944,-2.4758
09-Sep-2020 11:12:37.812,-0.0564,-0.6240,-0.6220,-0.6643,-0.6864, 1.1221,-0.0616, 0.2913,-2.4653
09-Sep-2020 11:12:37.822,-0.0203,-0.5860,-0.6038,-1.1406,-1.0112, 1.1593,-0.0719, 0.2839,-2.4541
09-Sep-2020 11:12:37.832, 0.0196,-0.5238,-0.6245,-1.5418,-1.5072, 1.2191,-0.0852, 0.2718,-2.4429
09-Sep-2020 11:12:37.842, 0.0518,-0.5222,-0.6217,-1.8180,-1.8557, 1.2713,-0.1030, 0.2555,-2.4319
09-Sep-2020 11:12:37.852, 0.0405,-0.4951,-0.6100,-2.0268,-2.1017, 1.2895,-0.1241, 0.2362,-2.4209
09-Sep-2020 11:12:37.862,-0.0212,-0.4416,-0.6239,-2.2139,-2.0885, 1.2133,-0.1471, 0.2145,-2.4107
09-Sep-2020 11:12:37.872,-0.0939,-0.4328,-0.6127,-2.3309,-1.5624, 1.0775,-0.1693, 0.1909,-2.4020
09-Sep-2020 11:12:37.882,-0.1233,-0.4161,-0.5871,-2.3760,-0.7103, 0.9523,-0.1858, 0.1662,-2.3954
09-Sep-2020 11:12:37.892,-0.1043,-0.3659,-0.6035,-2.3788, 0.0684, 0.9056,-0.1937, 0.1412,-2.3904
09-Sep-2020 11:12:37.902,-0.0446,-0.3346,-0.6579,-2.3627, 0.5111, 0.9400,-0.1938, 0.1163,-2.3859
09-Sep-2020 11:12:37.912, 0.0054,-0.3179,-0.7122,-2.3668, 0.6666, 0.9997,-0.1894, 0.0914,-2.3811
09-Sep-2020 11:12:37.921, 0.0030,-0.2861,-0.7115,-2.4183, 0.7874, 1.0062,-0.1832, 0.0664,-2.3756
09-Sep-2020 11:12:37.931,-0.0132,-0.2887,-0.7026,-2.5042, 0.7981, 0.9702,-0.1758, 0.0410,-2.3700
09-Sep-2020 11:12:37.941, 0.0046,-0.3278,-0.7904,-2.4369, 0.5143, 0.9504,-0.1682, 0.0149,-2.3647
09-Sep-2020 11:12:37.952,-0.0013,-0.3105,-0.9478,-2.1592,-0.0396, 0.8945,-0.1633,-0.0104,-2.3592
09-Sep-2020 11:12:37.961,-0.0925,-0.2202,-1.0568,-1.7715,-0.5535, 0.7124,-0.1636,-0.0330,-2.3539
09-Sep-2020 11:12:37.971,-0.2039,-0.1333,-1.0616,-1.3947,-0.7997, 0.4792,-0.1687,-0.0515,-2.3498
09-Sep-2020 11:12:37.981,-0.2233,-0.1172,-1.0108,-1.0752,-0.8143, 0.3372,-0.1764,-0.0660,-2.3473
09-Sep-2020 11:12:37.991,-0.2260,-0.0208,-0.9518,-0.8405,-0.5821, 0.1510,-0.1843,-0.0772,-2.3459
09-Sep-2020 11:12:38.001,-0.2177, 0.0985,-0.8820,-0.6207,-0.2438, 0.0090,-0.1900,-0.0857,-2.3459
09-Sep-2020 11:12:38.011,-0.1064, 0.0882,-0.8635,-0.4341,-0.0656, 0.0700,-0.1926,-0.0918,-2.3468
09-Sep-2020 11:12:38.021, 0.0106, 0.0836,-0.8457,-0.3297,-0.1232, 0.2334,-0.1934,-0.0962,-2.3468
09-Sep-2020 11:12:38.031, 0.0554, 0.1149,-0.8108,-0.3847,-0.3757, 0.4140,-0.1946,-0.0999,-2.3451
09-Sep-2020 11:12:38.041, 0.0157, 0.1133,-0.7798,-0.6612,-0.5222, 0.5128,-0.1980,-0.1046,-2.3418
09-Sep-2020 11:12:38.051,-0.1313, 0.0864,-0.7168,-0.9768,-0.0595, 0.4308,-0.2024,-0.1120,-2.3381
09-Sep-2020 11:12:38.061,-0.2294, 0.0579,-0.6710,-1.2227, 0.6537, 0.3969,-0.2026,-0.1223,-2.3357
09-Sep-2020 11:12:38.071,-0.2439, 0.0952,-0.7550,-1.3592, 1.0618, 0.2960,-0.1961,-0.1350,-2.3342
09-Sep-2020 11:12:38.081,-0.2942, 0.2629,-0.9038,-1.2168, 0.9855, 0.0181,-0.1858,-0.1486,-2.3339
09-Sep-2020 11:12:38.091,-0.3122, 0.3997,-1.0991,-0.7872, 0.3899,-0.3586,-0.1767,-0.1603,-2.3359
09-Sep-2020 11:12:38.101,-0.2586, 0.4601,-1.2512,-0.1535,-0.4390,-0.5884,-0.1737,-0.1672,-2.3406
09-Sep-2020 11:12:38.111,-0.0868, 0.3720,-1.2962,-0.1535,-0.4390,-0.5884,-0.1791,-0.1678,-2.3464
09-Sep-2020 11:12:38.121, 0.0150, 0.3399,-1.1692, 0.7184,-1.6697,-0.3103,-0.1921,-0.1631,-2.3505
09-Sep-2020 11:12:38.131, 0.0238, 0.3425,-0.9575, 0.7760,-1.5910,-0.1039,-0.2087,-0.1556,-2.3521
09-Sep-2020 11:12:38.141,-0.0147, 0.3198,-0.7711, 0.5566,-1.0913, 0.0692,-0.2242,-0.1480,-2.3514
09-Sep-2020 11:12:38.151,-0.1038, 0.2982,-0.6236, 0.1845,-0.2014, 0.1768,-0.2345,-0.1428,-2.3495
09-Sep-2020 11:12:38.161,-0.1883, 0.2842,-0.5519,-0.1716, 0.7592, 0.2477,-0.2362,-0.1415,-2.3472
09-Sep-2020 11:12:38.170,-0.2159, 0.2996,-0.5890,-0.4232, 1.3622, 0.3094,-0.2286,-0.1436,-2.3451
09-Sep-2020 11:12:38.180,-0.1978, 0.3144,-0.6863,-0.5640, 1.5063, 0.3687,-0.2150,-0.1483,-2.3429
09-Sep-2020 11:12:38.190,-0.1801, 0.3447,-0.7592,-0.6073, 1.3709, 0.4296,-0.1998,-0.1545,-2.3404
09-Sep-2020 11:12:38.200,-0.1875, 0.3884,-0.7986,-0.6066, 1.0815, 0.4651,-0.1858,-0.1612,-2.3372
09-Sep-2020 11:12:38.210,-0.2299, 0.4051,-0.8494,-0.5670, 0.7622, 0.4434,-0.1745,-0.1679,-2.3337
09-Sep-2020 11:12:38.220,-0.2842, 0.3796,-0.8879,-0.4886, 0.5147, 0.3591,-0.1663,-0.1741,-2.3302
09-Sep-2020 11:12:38.230,-0.3040, 0.3677,-0.9055,-0.4405, 0.2182, 0.2588,-0.1607,-0.1795,-2.3274
09-Sep-2020 11:12:38.240,-0.3431, 0.4400,-0.9093,-0.4170,-0.0445, 0.0546,-0.1582,-0.1843,-2.3255
09-Sep-2020 11:12:38.250,-0.3631, 0.4828,-0.8974,-0.4742,-0.2424,-0.1420,-0.1586,-0.1885,-2.3255
09-Sep-2020 11:12:38.260,-0.3556, 0.5213,-0.8506,-0.6378,-0.2567,-0.3173,-0.1613,-0.1930,-2.3276
09-Sep-2020 11:12:38.270,-0.3036, 0.5476,-0.8111,-0.8351,-0.1869,-0.3908,-0.1646,-0.1987,-2.3317
09-Sep-2020 11:12:38.280,-0.1946, 0.5271,-0.8461,-0.9544,-0.1545,-0.3231,-0.1676,-0.2062,-2.3368
09-Sep-2020 11:12:38.290,-0.0731, 0.4844,-0.9354,-0.9177,-0.2562,-0.1417,-0.1702,-0.2149,-2.3415
09-Sep-2020 11:12:38.300, 0.0030, 0.4628,-1.0308,-0.7782,-0.4806, 0.0926,-0.1735,-0.2236,-2.3444
09-Sep-2020 11:12:38.310,-0.0051, 0.4704,-1.0713,-0.6606,-0.6487, 0.2983,-0.1783,-0.2314,-2.3448
09-Sep-2020 11:12:38.319,-0.0895, 0.4826,-1.0357,-0.6442,-0.5301, 0.3763,-0.1842,-0.2384,-2.3430
09-Sep-2020 11:12:38.330,-0.1825, 0.4722,-0.9641,-0.7527,-0.1338, 0.3123,-0.1886,-0.2455,-2.3405
09-Sep-2020 11:12:38.339,-0.2001, 0.4526,-0.9126,-0.9348, 0.3305, 0.2890,-0.1895,-0.2534,-2.3387
09-Sep-2020 11:12:38.349,-0.1185, 0.4034,-0.9188,-1.1054, 0.5782, 0.3895,-0.1860,-0.2631,-2.3374
09-Sep-2020 11:12:38.360,-0.0182, 0.3519,-0.9866,-1.1849, 0.4962, 0.5512,-0.1800,-0.2746,-2.3354
09-Sep-2020 11:12:38.370, 0.0247, 0.3736,-1.0622,-1.1573, 0.1772, 0.7326,-0.1742,-0.2870,-2.3318
09-Sep-2020 11:12:38.380, 0.0132, 0.3986,-1.1648,-1.0810,-0.8968, 0.9220,-0.1713,-0.2996,-2.3263
09-Sep-2020 11:12:38.389,-0.4969, 0.4327,-1.6731, 1.3821, 1.6058,-0.0459,-0.1741,-0.3103,-2.3193
09-Sep-2020 11:12:38.399,-1.6507, 0.6329,-3.5250, 2.4727, 0.4773,-0.2056,-0.1627,-0.2988,-2.3164
09-Sep-2020 11:12:38.409,-0.1081, 0.1288,-1.3485, 1.6824,-0.4153, 0.2473,-0.1570,-0.2751,-2.3141
09-Sep-2020 11:12:38.419, 0.0449, 0.1460,-0.6086, 1.0101,-0.9874, 0.4189,-0.1596,-0.2588,-2.3090
09-Sep-2020 11:12:38.429,-0.0868, 0.2520,-0.8447, 0.7556,-1.4713, 0.3692,-0.1680,-0.2492,-2.3031
09-Sep-2020 11:12:38.439,-0.0817, 0.2219,-1.0121, 0.8396,-1.2961, 0.3396,-0.1809,-0.2422,-2.2978
09-Sep-2020 11:12:38.449,-0.2427, 0.2663,-1.0096, 1.0168,-0.9620, 0.2359,-0.1925,-0.2346,-2.2928
09-Sep-2020 11:12:38.459,-0.1542, 0.2133,-1.1686, 1.0320,-1.2018, 0.3352,-0.2015,-0.2252,-2.2882
09-Sep-2020 11:12:38.469, 0.1054, 0.0604,-1.0698, 0.9137,-1.5490, 0.5849,-0.2123,-0.2159,-2.2825
09-Sep-2020 11:12:38.479, 0.1127,-0.0096,-1.0294, 0.8460,-1.7766, 0.7894,-0.2260,-0.2082,-2.2746
09-Sep-2020 11:12:38.489,-0.0454, 0.0722,-1.0221, 0.8485,-1.6633, 0.9390,-0.2414,-0.2018,-2.2648
09-Sep-2020 11:12:38.499,-0.0873, 0.1902,-0.9659, 0.8179,-1.3827, 1.0726,-0.2556,-0.1959,-2.2534
09-Sep-2020 11:12:38.509,-0.0367, 0.3056,-0.8725, 0.8062,-1.1851, 1.1462,-0.2670,-0.1907,-2.2407
09-Sep-2020 11:12:38.519,-0.0039, 0.3637,-0.8540, 0.8854,-1.1169, 1.1526,-0.2764,-0.1860,-2.2272
09-Sep-2020 11:12:38.529,-0.0703, 0.3788,-0.8316, 0.9463,-1.0292, 1.0447,-0.2850,-0.1807,-2.2135
09-Sep-2020 11:12:38.539,-0.1946, 0.3837,-0.7775, 0.8849,-0.9077, 0.8188,-0.2930,-0.1746,-2.2007
09-Sep-2020 11:12:38.548,-0.2764, 0.3413,-0.7413, 0.7561,-0.6461, 0.6555,-0.3001,-0.1686,-2.1900
09-Sep-2020 11:12:38.559,-0.2745, 0.2478,-0.7491, 0.6599,-0.3109, 0.6219,-0.3050,-0.1634,-2.1813
09-Sep-2020 11:12:38.569,-0.2391, 0.1715,-0.7451, 0.6111,-0.1050, 0.6687,-0.3069,-0.1590,-2.1732
09-Sep-2020 11:12:38.579,-0.2222, 0.0846,-0.7630, 0.5064,-0.0339, 0.7078,-0.3068,-0.1552,-2.1648
09-Sep-2020 11:12:38.589,-0.2547, 0.0254,-0.7701, 0.2945, 0.1853, 0.7878,-0.3057,-0.1526,-2.1564
09-Sep-2020 11:12:38.599,-0.2463, 0.0515,-0.7878, 0.0001, 0.4329, 0.9315,-0.3026,-0.1522,-2.1479
09-Sep-2020 11:12:38.608,-0.2228, 0.0487,-0.8033,-0.1949, 0.7875, 1.1133,-0.2968,-0.1548,-2.1388
09-Sep-2020 11:12:38.620,-0.2282, 0.0311,-0.8236,-0.2610, 1.1181, 1.1425,-0.2874,-0.1598,-2.1286
09-Sep-2020 11:12:38.629,-0.2438, 0.0769,-0.8647,-0.2836, 1.3877, 1.0515,-0.2746,-0.1654,-2.1182
09-Sep-2020 11:12:38.638,-0.2135, 0.0859,-0.8858,-0.3562, 1.6132, 0.9333,-0.2593,-0.1709,-2.1087
09-Sep-2020 11:12:38.648,-0.1516, 0.0884,-0.9007,-0.4409, 1.7405, 0.9013,-0.2418,-0.1766,-2.1003
09-Sep-2020 11:12:38.658,-0.0853, 0.1185,-0.9443,-0.4980, 1.8152, 0.9547,-0.2231,-0.1829,-2.0923
09-Sep-2020 11:12:38.668,-0.0551, 0.1227,-0.9710,-0.5562, 1.8190, 1.0207,-0.2036,-0.1898,-2.0839
09-Sep-2020 11:12:38.679,-0.0440, 0.1069,-1.0069,-0.5958, 1.7625, 1.1462,-0.1837,-0.1971,-2.0747
09-Sep-2020 11:12:38.688,-0.0290, 0.0729,-1.0344,-0.6064, 1.6430, 1.3450,-0.1642,-0.2049,-2.0641
09-Sep-2020 11:12:38.698,-0.0338, 0.0628,-0.9924,-0.6508, 1.7049, 1.5640,-0.1451,-0.2129,-2.0515
09-Sep-2020 11:12:38.708,-0.0638, 0.0704,-0.9149,-0.8438, 1.9942, 1.7522,-0.1248,-0.2215,-2.0365
09-Sep-2020 11:12:38.718,-0.0948, 0.0661,-0.8394,-1.0965, 2.4243, 1.9745,-0.1010,-0.2318,-2.0196
09-Sep-2020 11:12:38.728,-0.0787, 0.0639,-0.8128,-1.2536, 2.7723, 2.2413,-0.0724,-0.2443,-2.0003
09-Sep-2020 11:12:38.738,-0.0405, 0.0829,-0.8649,-1.2647, 2.8419, 2.5215,-0.0394,-0.2579,-1.9780
09-Sep-2020 11:12:38.748,-0.0257, 0.1244,-0.9140,-1.2621, 2.8007, 2.7904,-0.0045,-0.2710,-1.9522
09-Sep-2020 11:12:38.758,-0.0045, 0.1627,-0.8858,-1.1569, 2.9334, 3.0550, 0.0315,-0.2830,-1.9231
09-Sep-2020 11:12:38.768, 0.0116, 0.1920,-0.8662,-1.1468, 2.9512, 3.2831, 0.0698,-0.2931,-1.8907
09-Sep-2020 11:12:38.778, 0.0419, 0.2499,-0.8561,-1.2008, 3.0012, 3.4600, 0.1095,-0.3015,-1.8556
09-Sep-2020 11:12:38.787, 0.0818, 0.2982,-0.8576,-1.2562, 3.0428, 3.6007, 0.1506,-0.3089,-1.8181
09-Sep-2020 11:12:38.797, 0.1205, 0.3195,-0.8765,-1.3109, 3.0581, 3.7864, 0.1929,-0.3150,-1.7787
09-Sep-2020 11:12:38.807, 0.1752, 0.2971,-0.8943,-1.3854, 3.1210, 4.0376, 0.2364,-0.3197,-1.7369
09-Sep-2020 11:12:38.817, 0.2337, 0.2674,-0.8994,-1.5141, 3.1277, 4.3341, 0.2816,-0.3227,-1.6921
09-Sep-2020 11:12:38.827, 0.2822, 0.2576,-0.9080,-1.6323, 3.0238, 4.6156, 0.3280,-0.3241,-1.6439
09-Sep-2020 11:12:38.837, 0.3086, 0.2682,-1.0175,-1.6713, 2.8757, 4.8662, 0.3744,-0.3234,-1.5925
09-Sep-2020 11:12:38.847, 0.3615, 0.2809,-0.9598,-1.7996, 2.8340, 5.0670, 0.4201,-0.3200,-1.5386
09-Sep-2020 11:12:38.857, 0.3761, 0.3387,-0.8710,-1.9383, 2.7906, 5.1784, 0.4657,-0.3145,-1.4826
09-Sep-2020 11:12:38.867, 0.4253, 0.3623,-0.8259,-2.0650, 2.7862, 5.2523, 0.5111,-0.3073,-1.4252
09-Sep-2020 11:12:38.877, 0.4925, 0.3657,-0.7580,-2.1529, 2.7937, 5.3084, 0.5561,-0.2983,-1.3671
09-Sep-2020 11:12:38.887, 0.5550, 0.3813,-0.7252,-2.1755, 2.7284, 5.3461, 0.6008,-0.2873,-1.3087
09-Sep-2020 11:12:38.897, 0.6040, 0.3933,-0.7174,-2.1064, 2.5462, 5.3281, 0.6439,-0.2737,-1.2506
09-Sep-2020 11:12:38.907, 0.6554, 0.4355,-0.7421,-1.9547, 2.1823, 4.8914, 0.6840,-0.2575,-1.1940
09-Sep-2020 11:12:38.917, 0.7002, 0.7519,-0.8399,-1.6867, 1.3823, 3.0084, 0.7178,-0.2417,-1.1436
09-Sep-2020 11:12:38.927, 0.9358, 1.0838,-0.9328,-0.9455, 0.9404, 2.2548, 0.7401,-0.2332,-1.1086
09-Sep-2020 11:12:38.937, 1.3605, 0.7000,-0.8338,-0.7258, 0.7046, 1.8259, 0.7552,-0.2251,-1.0847
09-Sep-2020 11:12:38.947, 1.2883, 0.4189,-0.7899,-0.6437,-0.3890, 2.4480, 0.7658,-0.2168,-1.0651
09-Sep-2020 11:12:38.957, 1.2112, 0.2944,-1.0206,-0.6113,-0.8168, 3.1902, 0.7672,-0.2046,-1.0427
09-Sep-2020 11:12:38.967, 0.9678, 0.0586,-0.6832,-0.7426,-0.5127, 3.8011, 0.7649,-0.1870,-1.0150
09-Sep-2020 11:12:38.977, 0.5766, 0.0274,-0.4903,-0.9383,-0.0716, 3.9771, 0.7656,-0.1663,-0.9823
09-Sep-2020 11:12:38.987, 0.3233, 0.0031,-0.3901,-0.8174, 0.1653, 4.1500, 0.7702,-0.1452,-0.9470
09-Sep-2020 11:12:38.997, 0.3242, 0.0061,-0.5957,-0.4589, 0.0384, 4.3320, 0.7764,-0.1220,-0.9115
09-Sep-2020 11:12:39.007, 0.4210,-0.1703,-0.9435,-0.2360,-0.0878, 4.5651, 0.7804,-0.0949,-0.8773
09-Sep-2020 11:12:39.016, 0.5204,-0.2273,-0.9479,-0.2904, 0.2150, 4.8359, 0.7826,-0.0646,-0.8431
09-Sep-2020 11:12:39.027, 0.5635,-0.0816,-0.8725,-0.6573, 0.2497, 5.0477, 0.7862,-0.0328,-0.8068
09-Sep-2020 11:12:39.037, 0.6152, 0.0909,-0.8020,-1.2419, 0.3712, 5.0596, 0.7895,-0.0019,-0.7667
09-Sep-2020 11:12:39.046, 0.6711, 0.1865,-0.6956,-1.7921, 0.5320, 4.7661, 0.7926, 0.0252,-0.7226
09-Sep-2020 11:12:39.056, 0.7111, 0.3427,-0.6584,-2.1349, 0.6241, 3.9059, 0.7963, 0.0464,-0.6770
09-Sep-2020 11:12:39.067, 0.8092, 0.4562,-0.6716,-2.0640, 0.4825, 3.4584, 0.8001, 0.0599,-0.6345
09-Sep-2020 11:12:39.076, 0.8639, 0.2921,-0.7739,-1.6290, 0.2350, 3.3979, 0.8023, 0.0707,-0.5957
09-Sep-2020 11:12:39.086, 0.7957, 0.1954,-0.8069,-1.0792, 0.0727, 3.1340, 0.8020, 0.0838,-0.5606
09-Sep-2020 11:12:39.096, 0.7151, 0.1116,-0.7114,-0.6769,-0.1612, 2.8700, 0.7998, 0.0987,-0.5309
09-Sep-2020 11:12:39.106, 0.7135, 0.0402,-0.6264,-0.3245,-0.1351, 2.8962, 0.7958, 0.1147,-0.5059
09-Sep-2020 11:12:39.116, 0.7043,-0.0701,-0.6031,-0.0437,-0.0497, 3.0464, 0.7916, 0.1331,-0.4831
09-Sep-2020 11:12:39.126, 0.7049,-0.1340,-0.6472, 0.1473,-0.0512, 3.1735, 0.7879, 0.1543,-0.4611
09-Sep-2020 11:12:39.136, 0.7057,-0.1259,-0.6983, 0.2519,-0.0563, 3.2224, 0.7838, 0.1777,-0.4395
09-Sep-2020 11:12:39.146, 0.6963,-0.0444,-0.6857, 0.2939,-0.0582, 3.1928, 0.7792, 0.2021,-0.4181
09-Sep-2020 11:12:39.156, 0.6785, 0.0455,-0.6928, 0.2482,-0.0540, 2.9901, 0.7741, 0.2264,-0.3970
09-Sep-2020 11:12:39.166, 0.6858, 0.0069,-0.7074, 0.0976,-0.1350, 2.7006, 0.7687, 0.2489,-0.3768
09-Sep-2020 11:12:39.176, 0.7507,-0.0809,-0.6708,-0.1028,-0.1326, 2.3319, 0.7625, 0.2682,-0.3574
09-Sep-2020 11:12:39.185, 0.7763,-0.1602,-0.6247,-0.2542,-0.0856, 1.9955, 0.7562, 0.2836,-0.3392
09-Sep-2020 11:12:39.195, 0.7890,-0.2267,-0.5586,-0.3650,-0.0227, 1.7450, 0.7505, 0.2954,-0.3222
09-Sep-2020 11:12:39.206, 0.7773,-0.3328,-0.5227,-0.3904, 0.1172, 1.5677, 0.7456, 0.3047,-0.3063
09-Sep-2020 11:12:39.215, 0.7422,-0.4274,-0.5645,-0.2918, 0.3604, 1.5096, 0.7423, 0.3126,-0.2914
09-Sep-2020 11:12:39.225, 0.7077,-0.4568,-0.6430,-0.1432, 0.4888, 1.5675, 0.7415, 0.3208,-0.2777
09-Sep-2020 11:12:39.235, 0.6911,-0.4340,-0.7418, 0.0008, 0.3880, 1.6268, 0.7420, 0.3303,-0.2645
09-Sep-2020 11:12:39.245, 0.6625,-0.4538,-0.7813, 0.1393, 0.3143, 1.6250, 0.7417, 0.3413,-0.2518
09-Sep-2020 11:12:39.255, 0.7203,-0.5106,-0.7173, 0.2049, 0.4503, 1.5621, 0.7410, 0.3533,-0.2401
09-Sep-2020 11:12:39.265, 0.7811,-0.4815,-0.6516, 0.0860, 0.4564, 1.4517, 0.7415, 0.3652,-0.2293
09-Sep-2020 11:12:39.275, 0.7771,-0.4196,-0.6089,-0.2001, 0.3527, 1.5218, 0.7420, 0.3757,-0.2183
09-Sep-2020 11:12:39.285, 0.8626,-0.3329,-0.5445,-0.5090, 0.4056, 1.8163, 0.7406, 0.3846,-0.2046
09-Sep-2020 11:12:39.295, 0.8985,-0.1737,-0.5437,-0.7871, 0.3532, 2.1473, 0.7376, 0.3932,-0.1864
09-Sep-2020 11:12:39.305, 0.8952,-0.0099,-0.5820,-1.1298, 0.2077, 2.3775, 0.7322, 0.4017,-0.1636
09-Sep-2020 11:12:39.315, 0.8766, 0.0366,-0.6116,-1.5040, 0.0151, 2.5176, 0.7234, 0.4090,-0.1362
09-Sep-2020 11:12:39.325, 0.8494,-0.0055,-0.6548,-1.7928,-0.1700, 2.6197, 0.7110, 0.4143,-0.1049
09-Sep-2020 11:12:39.335, 0.8354,-0.0555,-0.6696,-1.9892,-0.3226, 2.6706, 0.6955, 0.4176,-0.0705
09-Sep-2020 11:12:39.345, 0.8396,-0.1045,-0.6374,-2.1555,-0.3516, 2.6749, 0.6776, 0.4193,-0.0343
09-Sep-2020 11:12:39.355, 0.8104,-0.1649,-0.5513,-2.3012,-0.2733, 2.5347, 0.6590, 0.4189, 0.0031
09-Sep-2020 11:12:39.365, 0.7103,-0.1960,-0.5040,-2.4736,-0.1940, 2.2952, 0.6412, 0.4160, 0.0402
09-Sep-2020 11:12:39.375, 0.6261,-0.1523,-0.4537,-2.7046,-0.1087, 2.0498, 0.6248, 0.4097, 0.0763
09-Sep-2020 11:12:39.385, 0.5492,-0.0721,-0.3980,-2.9452,-0.0030, 1.8169, 0.6099, 0.3996, 0.1114
09-Sep-2020 11:12:39.395, 0.4679, 0.0125,-0.3433,-3.2090, 0.1185, 1.5712, 0.5968, 0.3858, 0.1455
09-Sep-2020 11:12:39.404, 0.3965, 0.0635,-0.3201,-3.5009, 0.1623, 1.2716, 0.5857, 0.3680, 0.1787
09-Sep-2020 11:12:39.414, 0.2910, 0.1193,-0.3483,-3.7961, 0.2169, 0.9298, 0.5762, 0.3459, 0.2104
09-Sep-2020 11:12:39.424, 0.2400, 0.1585,-0.3514,-4.1038, 0.3846, 0.6373, 0.5687, 0.3192, 0.2403
09-Sep-2020 11:12:39.434, 0.2466, 0.1730,-0.3443,-4.4272, 0.5371, 0.4559, 0.5639, 0.2882, 0.2690
09-Sep-2020 11:12:39.444, 0.2907, 0.1500,-0.3808,-4.7388, 0.6496, 0.3742, 0.5616, 0.2534, 0.2974
09-Sep-2020 11:12:39.454, 0.3380, 0.1349,-0.4021,-5.0096, 0.7596, 0.3565, 0.5613, 0.2156, 0.3266
09-Sep-2020 11:12:39.464, 0.3549, 0.1634,-0.4309,-5.2679, 0.6032, 0.4226, 0.5629, 0.1754, 0.3568
09-Sep-2020 11:12:39.474, 0.4358, 0.1566,-0.7360,-5.3345,-0.1293, 0.6229, 0.5632, 0.1336, 0.3888
09-Sep-2020 11:12:39.484, 0.5194, 0.0963,-1.5639,-3.7502,-0.4206, 0.6175, 0.5573, 0.0943, 0.4210
09-Sep-2020 11:12:39.495, 0.3579,-0.0104,-1.3421,-3.3484, 0.0510, 0.6628, 0.5512, 0.0650, 0.4467
09-Sep-2020 11:12:39.504, 0.2986,-0.1539,-1.2145,-3.3484, 0.0510, 0.6628, 0.5507, 0.0402, 0.4695
09-Sep-2020 11:12:39.514, 0.2084,-0.0921,-1.2343,-1.6940, 0.9246, 0.2911, 0.5548, 0.0218, 0.4857
09-Sep-2020 11:12:39.524, 0.3755, 0.0764,-1.0318,-1.4168, 1.1224, 0.3415, 0.5636, 0.0088, 0.4974
09-Sep-2020 11:12:39.534, 0.3786, 0.0833,-1.0074,-1.2658, 1.0909, 0.3384, 0.5746,-0.0012, 0.5079
09-Sep-2020 11:12:39.544, 0.3280, 0.0435,-1.0457,-1.1310, 0.9025, 0.1706, 0.5854,-0.0099, 0.5175
09-Sep-2020 11:12:39.554, 0.3020, 0.0882,-1.0730,-0.9783, 0.7024,-0.0974, 0.5945,-0.0183, 0.5252
09-Sep-2020 11:12:39.564, 0.2901, 0.0817,-1.0899,-0.8299, 0.6190,-0.3810, 0.6016,-0.0268, 0.5299
09-Sep-2020 11:12:39.574, 0.3239, 0.0262,-1.0934,-0.7011, 0.6882,-0.5880, 0.6079,-0.0357, 0.5316
09-Sep-2020 11:12:39.584, 0.3688,-0.0253,-1.0715,-0.6027, 0.8513,-0.7239, 0.6148,-0.0447, 0.5309
09-Sep-2020 11:12:39.594, 0.4043,-0.0634,-1.0298,-0.5153, 1.0242,-0.8006, 0.6231,-0.0536, 0.5286
09-Sep-2020 11:12:39.604, 0.4338,-0.0950,-0.9929,-0.4408, 1.1374,-0.8346, 0.6331,-0.0624, 0.5252
09-Sep-2020 11:12:39.614, 0.4726,-0.1050,-0.9637,-0.3694, 1.1915,-0.8373, 0.6441,-0.0708, 0.5212
09-Sep-2020 11:12:39.624, 0.5179,-0.0909,-0.9411,-0.2858, 1.1939,-0.8251, 0.6556,-0.0787, 0.5168
09-Sep-2020 11:12:39.634, 0.5446,-0.0582,-0.9489,-0.1818, 1.1374,-0.8187, 0.6670,-0.0859, 0.5121
09-Sep-2020 11:12:39.644, 0.5673,-0.0246,-0.9565,-0.0755, 1.0523,-0.8250, 0.6778,-0.0923, 0.5068
09-Sep-2020 11:12:39.653, 0.6030,-0.0024,-0.9581, 0.0422, 0.9488,-0.8419, 0.6877,-0.0980, 0.5009
09-Sep-2020 11:12:39.664, 0.6254, 0.0125,-0.9663, 0.1649, 0.8221,-0.8411, 0.6965,-0.1030, 0.4942
09-Sep-2020 11:12:39.673, 0.6720, 0.0260,-0.9851, 0.3161, 0.6088,-0.7937, 0.7038,-0.1070, 0.4868
09-Sep-2020 11:12:39.683, 0.7396, 0.0319,-1.0215, 0.4847, 0.2908,-0.6979, 0.7089,-0.1096, 0.4787
09-Sep-2020 11:12:39.693, 0.7951, 0.0371,-1.0549, 0.6856,-0.1338,-0.5597, 0.7108,-0.1104, 0.4703
09-Sep-2020 11:12:39.703, 0.8531, 0.0399,-1.1093, 0.9412,-0.5963,-0.3693, 0.7085,-0.1087, 0.4616
09-Sep-2020 11:12:39.713, 0.8908, 0.0280,-1.1725, 1.2904,-1.0708,-0.1242, 0.7016,-0.1038, 0.4527
09-Sep-2020 11:12:39.723, 0.9313, 0.0177,-1.2101, 1.6346,-1.3281, 0.0706, 0.6901,-0.0947, 0.4435
09-Sep-2020 11:12:39.733, 0.9008, 0.0139,-1.1297, 1.6998,-0.9617, 0.0818, 0.6764,-0.0818, 0.4338
09-Sep-2020 11:12:39.743, 0.8056,-0.0265,-0.9555, 1.3989,-0.1344,-0.0594, 0.6665,-0.0682, 0.4240
09-Sep-2020 11:12:39.753, 0.7314,-0.0815,-0.8901, 1.1230, 0.1458,-0.1949, 0.6642,-0.0575, 0.4149
09-Sep-2020 11:12:39.763, 0.7278,-0.0851,-0.9277, 0.9863,-0.2130,-0.2485, 0.6648,-0.0497, 0.4065
09-Sep-2020 11:12:39.773, 0.7733,-0.0455,-0.9070, 0.8793,-0.6633,-0.2430, 0.6622,-0.0434, 0.3986
09-Sep-2020 11:12:39.783, 0.7895,-0.0082,-0.8046, 0.7097,-0.9016,-0.2166, 0.6555,-0.0379, 0.3914
09-Sep-2020 11:12:39.793, 0.7756,-0.0052,-0.7036, 0.5021,-0.9411,-0.1913, 0.6464,-0.0336, 0.3854
09-Sep-2020 11:12:39.803, 0.7498,-0.0184,-0.6396, 0.3486,-0.8325,-0.1568, 0.6370,-0.0306, 0.3809
09-Sep-2020 11:12:39.813, 0.7426,-0.0358,-0.6060, 0.2681,-0.6451,-0.1160, 0.6286,-0.0287, 0.3776
09-Sep-2020 11:12:39.822, 0.7341,-0.0599,-0.6170, 0.2218,-0.4225,-0.0668, 0.6222,-0.0271, 0.3752
09-Sep-2020 11:12:39.832, 0.7220,-0.0897,-0.6463, 0.1926,-0.1628,-0.0117, 0.6179,-0.0256, 0.3734
09-Sep-2020 11:12:39.842, 0.7225,-0.1121,-0.6765, 0.1783, 0.1325, 0.0484, 0.6163,-0.0240, 0.3722
09-Sep-2020 11:12:39.852, 0.7318,-0.1160,-0.6993, 0.1774, 0.4299, 0.1175, 0.6176,-0.0222, 0.3716
09-Sep-2020 11:12:39.862, 0.7204,-0.1106,-0.7048, 0.1569, 0.6963, 0.1713, 0.6219,-0.0201, 0.3716
09-Sep-2020 11:12:39.872, 0.6887,-0.0912,-0.6901, 0.1186, 0.9187, 0.1929, 0.6288,-0.0177, 0.3721
09-Sep-2020 11:12:39.882, 0.6458,-0.0573,-0.6830, 0.0755, 1.0663, 0.1621, 0.6379,-0.0156, 0.3729
09-Sep-2020 11:12:39.892, 0.6060,-0.0216,-0.7057, 0.0311, 1.1400, 0.0784, 0.6485,-0.0140, 0.3738
09-Sep-2020 11:12:39.902, 0.6100, 0.0140,-0.7513,-0.0134, 1.1237,-0.0005, 0.6598,-0.0132, 0.3742
09-Sep-2020 11:12:39.912, 0.6474, 0.0333,-0.8116,-0.0688, 1.0013,-0.0569, 0.6709,-0.0132, 0.3744
09-Sep-2020 11:12:39.922, 0.6776, 0.0504,-0.8625,-0.1216, 0.7702,-0.1093, 0.6808,-0.0140, 0.3744
09-Sep-2020 11:12:39.932, 0.6908, 0.0686,-0.8967,-0.1416, 0.4716,-0.1594, 0.6884,-0.0156, 0.3743
09-Sep-2020 11:12:39.942, 0.6821, 0.0812,-0.9216,-0.1256, 0.1916,-0.2137, 0.6930,-0.0176, 0.3740
09-Sep-2020 11:12:39.952, 0.6664, 0.0783,-0.9142,-0.0917, 0.0388,-0.2627, 0.6950,-0.0198, 0.3732
09-Sep-2020 11:12:39.962, 0.6400, 0.0672,-0.8950,-0.0486, 0.0276,-0.3233, 0.6954,-0.0222, 0.3718
09-Sep-2020 11:12:39.972, 0.6190, 0.0513,-0.8897, 0.0332, 0.1322,-0.3941, 0.6957,-0.0245, 0.3697
09-Sep-2020 11:12:39.982, 0.6264, 0.0475,-0.9123, 0.1451, 0.2593,-0.4576, 0.6970,-0.0267, 0.3665
09-Sep-2020 11:12:39.992, 0.6552, 0.0653,-0.9643, 0.2780, 0.2992,-0.5072, 0.6994,-0.0284, 0.3621
09-Sep-2020 11:12:40.002, 0.6951, 0.1048,-1.0465, 0.4391, 0.2433,-0.5555, 0.7021,-0.0295, 0.3564
09-Sep-2020 11:12:40.012, 0.7139, 0.1401,-1.1288, 0.6140, 0.1330,-0.6219, 0.7043,-0.0296, 0.3494
09-Sep-2020 11:12:40.021, 0.7128, 0.1597,-1.1830, 0.8083, 0.0168,-0.7106, 0.7053,-0.0289, 0.3408
09-Sep-2020 11:12:40.032, 0.7032, 0.1777,-1.1839, 1.0173,-0.0551,-0.8237, 0.7052,-0.0273, 0.3302
09-Sep-2020 11:12:40.042, 0.6822, 0.1868,-1.1498, 1.2292,-0.0563,-0.9369, 0.7043,-0.0248, 0.3174
09-Sep-2020 11:12:40.052, 0.6673, 0.1849,-1.0908, 1.4291, 0.0492,-1.0264, 0.7035,-0.0215, 0.3024
09-Sep-2020 11:12:40.062, 0.6699, 0.1762,-1.0057, 1.6079, 0.2444,-1.0839, 0.7037,-0.0171, 0.2854
09-Sep-2020 11:12:40.071, 0.6780, 0.1660,-0.9301, 1.7718, 0.4858,-1.1242, 0.7059,-0.0119, 0.2669
09-Sep-2020 11:12:40.081, 0.6883, 0.1568,-0.8875, 1.9207, 0.7240,-1.1276, 0.7105,-0.0057, 0.2470
09-Sep-2020 11:12:40.091, 0.7060, 0.1298,-0.8618, 2.0499, 0.8688,-1.1199, 0.7176, 0.0015, 0.2260
09-Sep-2020 11:12:40.101, 0.7163, 0.1180,-0.8580, 2.1263, 0.9515,-1.1306, 0.7263, 0.0095, 0.2042
09-Sep-2020 11:12:40.111, 0.7226, 0.1112,-0.8134, 2.1209, 0.9708,-1.1421, 0.7361, 0.0177, 0.1818
09-Sep-2020 11:12:40.121, 0.7413, 0.0690,-0.7465, 2.0577, 0.9280,-1.1190, 0.7462, 0.0257, 0.1592
09-Sep-2020 11:12:40.131, 0.7398, 0.0366,-0.6700, 1.9909, 0.9042,-1.1362, 0.7561, 0.0331, 0.1371
09-Sep-2020 11:12:40.141, 0.7078, 0.0500,-0.6072, 1.9616, 0.7375,-1.2688, 0.7658, 0.0397, 0.1152
09-Sep-2020 11:12:40.151, 0.6144, 0.0966,-0.6445, 2.0036, 0.5835,-1.5566, 0.7741, 0.0450, 0.0924
09-Sep-2020 11:12:40.161, 0.6352, 0.0975,-0.5906, 2.0691, 0.9070,-1.7617, 0.7814, 0.0484, 0.0674
09-Sep-2020 11:12:40.171, 0.7719, 0.0356,-0.4028, 2.0842, 1.7884,-1.7318, 0.7922, 0.0507, 0.0406
09-Sep-2020 11:12:40.181, 0.9425,-0.0045,-0.2732, 2.0438, 2.8116,-1.4506, 0.8115, 0.0530, 0.0138
09-Sep-2020 11:12:40.191, 1.0716,-0.0242,-0.3067, 2.0101, 3.4259,-1.1080, 0.8406, 0.0563,-0.0109
09-Sep-2020 11:12:40.201, 1.0853,-0.0159,-0.4526, 1.9879, 3.5250,-0.8555, 0.8756, 0.0610,-0.0333
09-Sep-2020 11:12:40.211, 1.0305, 0.0103,-0.5406, 1.9145, 3.3120,-0.6829, 0.9118, 0.0668,-0.0541
09-Sep-2020 11:12:40.220, 0.9546, 0.0156,-0.5422, 1.7324, 2.7518,-0.5303, 0.9459, 0.0728,-0.0734
09-Sep-2020 11:12:40.230, 0.8715, 0.0208,-0.4803, 1.4098, 1.8833,-0.4275, 0.9744, 0.0783,-0.0906
09-Sep-2020 11:12:40.240, 0.7647, 0.0524,-0.4003, 0.9603, 1.0602,-0.4259, 0.9942, 0.0825,-0.1046
09-Sep-2020 11:12:40.250, 0.6863,-0.0086,-0.3332, 0.5642, 0.7614,-0.5167, 1.0060, 0.0842,-0.1151
09-Sep-2020 11:12:40.260, 0.7071,-0.1495,-0.3587, 0.3167, 0.8159,-0.6025, 1.0144, 0.0829,-0.1226
09-Sep-2020 11:12:40.270, 0.8266,-0.2272,-0.4091, 0.2301, 0.8955,-0.4580, 1.0230, 0.0797,-0.1285
09-Sep-2020 11:12:40.280, 0.9686,-0.2245,-0.4440, 0.2007, 1.0584,-0.2383, 1.0323, 0.0771,-0.1328
09-Sep-2020 11:12:40.290, 1.0059,-0.1883,-0.4947, 0.1767, 1.0564,-0.0298, 1.0429, 0.0762,-0.1358
09-Sep-2020 11:12:40.300, 1.0144,-0.1588,-0.5319, 0.0767, 0.9166, 0.0681, 1.0535, 0.0768,-0.1374
09-Sep-2020 11:12:40.310, 0.9717,-0.1186,-0.5405,-0.0660, 0.5825, 0.0756, 1.0625, 0.0778,-0.1378
09-Sep-2020 11:12:40.320, 0.9143,-0.0847,-0.5743,-0.2020, 0.1478, 0.0086, 1.0681, 0.0782,-0.1368
09-Sep-2020 11:12:40.330, 0.8322,-0.0336,-0.5845,-0.2969,-0.2433,-0.1282, 1.0695, 0.0774,-0.1351
09-Sep-2020 11:12:40.340, 0.8122, 0.0184,-0.6419,-0.2396,-0.7142,-0.2073, 1.0668, 0.0750,-0.1332
09-Sep-2020 11:12:40.350, 0.7586, 0.0373,-0.6799,-0.3769,-0.6142,-0.4685, 1.0602, 0.0718,-0.1320
09-Sep-2020 11:12:40.360, 0.5425, 0.0213,-0.3676,-0.5217,-0.3613,-0.6592, 1.0541, 0.0660,-0.1310
09-Sep-2020 11:12:40.370, 0.6136,-0.0497,-0.2240,-0.5871, 0.0518,-0.8119, 1.0505, 0.0579,-0.1297
09-Sep-2020 11:12:40.380, 0.6787,-0.0723,-0.1377,-0.5641, 0.4998,-0.8472, 1.0510, 0.0482,-0.1287
09-Sep-2020 11:12:40.390, 0.8340,-0.0992,-0.2225,-0.4358, 0.7373,-0.7250, 1.0558, 0.0383,-0.1280
09-Sep-2020 11:12:40.400, 1.0464,-0.0739,-0.4241,-0.1823, 0.7075,-0.4640, 1.0628, 0.0301,-0.1278
09-Sep-2020 11:12:40.410, 0.9624,-0.0203,-0.4339,-0.3962, 1.2118,-0.7339, 1.0706, 0.0246,-0.1283
09-Sep-2020 11:12:40.420, 0.6577,-0.0100,-0.1489,-0.6741, 1.1110,-1.0142, 1.0822, 0.0163,-0.1283
09-Sep-2020 11:12:40.430, 0.8250,-0.0189,-0.3586,-0.7735, 0.4729,-1.0595, 1.0929, 0.0045,-0.1271
09-Sep-2020 11:12:40.440, 0.9552, 0.0469,-0.4819,-0.8192,-0.1808,-0.9182, 1.0976,-0.0082,-0.1250
09-Sep-2020 11:12:40.451, 0.8409, 0.1044,-0.4497,-0.9429,-0.4921,-0.9419, 1.0961,-0.0201,-0.1219
09-Sep-2020 11:12:40.460, 0.6280, 0.1080,-0.3663,-1.0768,-0.6183,-1.1590, 1.0914,-0.0327,-0.1179
09-Sep-2020 11:12:40.470, 0.5262, 0.0940,-0.3740,-1.1536,-0.7084,-1.3636, 1.0854,-0.0478,-0.1138
09-Sep-2020 11:12:40.480, 0.5452, 0.0826,-0.4106,-1.1591,-0.8189,-1.4848, 1.0785,-0.0650,-0.1101
09-Sep-2020 11:12:40.489, 0.5598, 0.1171,-0.4526,-1.0868,-0.8079,-1.5703, 1.0707,-0.0834,-0.1070
09-Sep-2020 11:12:40.500, 0.5724, 0.1084,-0.4228,-1.0337,-0.4719,-1.5692, 1.0630,-0.1022,-0.1050
09-Sep-2020 11:12:40.509, 0.5628, 0.0713,-0.3226,-1.0107, 0.1671,-1.6646, 1.0586,-0.1208,-0.1037
09-Sep-2020 11:12:40.519, 0.3536, 0.1110,-0.3194,-0.8248, 0.5273,-1.9534, 1.0601,-0.1403,-0.1032
09-Sep-2020 11:12:40.529, 0.4258, 0.1505,-0.5114,-0.6213, 0.7862,-2.3432, 1.0651,-0.1613,-0.1056
09-Sep-2020 11:12:40.539, 0.3791, 0.1864,-0.4825,-0.5070, 0.8257,-2.8060, 1.0717,-0.1847,-0.1114
09-Sep-2020 11:12:40.549, 0.4092, 0.1485,-0.4775,-0.5449, 0.7021,-3.1723, 1.0781,-0.2116,-0.1203
09-Sep-2020 11:12:40.559, 0.5916, 0.1698,-0.4577,-0.7477, 0.2009,-3.2553, 1.0825,-0.2418,-0.1305
09-Sep-2020 11:12:40.569, 0.8396, 0.2672,-0.4774,-1.1552,-0.2215,-2.9950, 1.0824,-0.2737,-0.1392
09-Sep-2020 11:12:40.579, 1.0542, 0.3228,-0.3579,-1.5750,-0.3846,-2.5193, 1.0792,-0.3052,-0.1431
09-Sep-2020 11:12:40.589, 1.1484, 0.2847,-0.3625,-1.5750,-0.3846,-2.5193, 1.0761,-0.3345,-0.1412
09-Sep-2020 11:12:40.599, 1.1519, 0.2614,-0.3453,-1.7724,-0.0065,-1.6510, 1.0754,-0.3608,-0.1349
09-Sep-2020 11:12:40.609, 1.1559, 0.2743,-0.3511,-1.6440, 0.2214,-1.3860, 1.0782,-0.3836,-0.1267
09-Sep-2020 11:12:40.619, 0.9991, 0.3019,-0.3487,-1.4944, 0.3218,-1.3650, 1.0837,-0.4036,-0.1182
09-Sep-2020 11:12:40.629, 0.9430, 0.4125,-0.4301,-1.2928, 0.4352,-1.1996, 1.0900,-0.4224,-0.1107
09-Sep-2020 11:12:40.639, 0.9923, 0.5213,-0.3743,-1.1567, 0.5850,-1.0074, 1.0970,-0.4388,-0.1041
09-Sep-2020 11:12:40.649, 0.8941, 0.5596,-0.3145,-1.0409, 0.6647,-0.9355, 1.1055,-0.4530,-0.0978
09-Sep-2020 11:12:40.659, 0.8074, 0.5700,-0.3477,-0.9631, 0.7313,-0.9672, 1.1147,-0.4659,-0.0920
09-Sep-2020 11:12:40.669, 0.7451, 0.5527,-0.2759,-0.9541, 0.8615,-1.1059, 1.1243,-0.4787,-0.0870
09-Sep-2020 11:12:40.679, 0.7149, 0.5083,-0.2278,-0.9438, 1.0035,-1.2995, 1.1349,-0.4927,-0.0827
09-Sep-2020 11:12:40.688, 0.7025, 0.4535,-0.2094,-0.9323, 1.1780,-1.4953, 1.1466,-0.5083,-0.0791
09-Sep-2020 11:12:40.698, 0.7322, 0.4285,-0.2203,-0.9077, 1.3161,-1.5903, 1.1598,-0.5255,-0.0762
09-Sep-2020 11:12:40.709, 0.7894, 0.4279,-0.2252,-0.8817, 1.4529,-1.5674, 1.1741,-0.5434,-0.0738
09-Sep-2020 11:12:40.718, 0.7864, 0.4600,-0.2393,-0.8573, 1.5430,-1.4663, 1.1899,-0.5611,-0.0712
09-Sep-2020 11:12:40.729, 0.7444, 0.5393,-0.3170,-0.8439, 1.1476,-1.2907, 1.2066,-0.5777,-0.0680
09-Sep-2020 11:12:40.738, 0.6672, 0.6835,-0.4593,-0.8232, 0.4253,-1.0982, 1.2201,-0.5926,-0.0640
09-Sep-2020 11:12:40.748, 0.7526, 0.7716,-0.4965,-0.7916,-0.0170,-0.9614, 1.2272,-0.6056,-0.0592
09-Sep-2020 11:12:40.758, 0.7650, 0.7534,-0.4682,-0.7044,-0.1418,-1.0585, 1.2301,-0.6173,-0.0542
09-Sep-2020 11:12:40.768, 0.7046, 0.6617,-0.3755,-0.6675,-0.2303,-1.1739, 1.2309,-0.6295,-0.0503
09-Sep-2020 11:12:40.778, 0.7442, 0.6161,-0.2507,-0.7346,-0.3580,-1.2332, 1.2303,-0.6426,-0.0473
09-Sep-2020 11:12:40.788, 0.7467, 0.5503,-0.1397,-0.7958,-0.3714,-1.2152, 1.2289,-0.6565,-0.0438
09-Sep-2020 11:12:40.798, 0.8078, 0.5308,-0.1560,-0.7563,-0.1434,-1.1593, 1.2280,-0.6704,-0.0395
09-Sep-2020 11:12:40.808, 0.7751, 0.5709,-0.1604,-0.6535, 0.1683,-1.1298, 1.2292,-0.6837,-0.0355
09-Sep-2020 11:12:40.818, 0.7521, 0.6584,-0.1889,-0.5269, 0.4647,-1.1514, 1.2327,-0.6964,-0.0325
09-Sep-2020 11:12:40.828, 0.7356, 0.7188,-0.2516,-0.4647, 0.6715,-1.1766, 1.2382,-0.7089,-0.0309
09-Sep-2020 11:12:40.838, 0.7169, 0.7489,-0.2510,-0.4341, 0.8236,-1.1678, 1.2455,-0.7215,-0.0301
09-Sep-2020 11:12:40.848, 0.7136, 0.7634,-0.3088,-0.3731, 1.0378,-1.1128, 1.2541,-0.7337,-0.0296
09-Sep-2020 11:12:40.858, 0.6901, 0.7761,-0.3411,-0.3029, 1.3214,-1.0412, 1.2645,-0.7453,-0.0294
09-Sep-2020 11:12:40.867, 0.6994, 0.7784,-0.2916,-0.3061, 1.6133,-1.0463, 1.2775,-0.7561,-0.0296
09-Sep-2020 11:12:40.877, 0.6727, 0.7486,-0.2170,-0.3924, 1.7601,-1.0658, 1.2935,-0.7669,-0.0296
09-Sep-2020 11:12:40.887, 0.6703, 0.7242,-0.1721,-0.5083, 1.7856,-1.2030, 1.3118,-0.7781,-0.0283
09-Sep-2020 11:12:40.897, 0.6045, 0.7004,-0.1270,-0.6817, 1.7064,-1.4129, 1.3315,-0.7909,-0.0255
09-Sep-2020 11:12:40.907, 0.6111, 0.6758,-0.0882,-0.8954, 1.4195,-1.6468, 1.3519,-0.8061,-0.0206
09-Sep-2020 11:12:40.917, 0.6041, 0.6486,-0.0886,-1.0794, 1.0249,-1.8989, 1.3715,-0.8239,-0.0129
09-Sep-2020 11:12:40.927, 0.5758, 0.6514,-0.0760,-1.2363, 0.6722,-2.1157, 1.3894,-0.8444,-0.0025
09-Sep-2020 11:12:40.937, 0.5610, 0.6831,-0.0749,-1.2901, 0.2306,-2.2433, 1.4056,-0.8671, 0.0103
09-Sep-2020 11:12:40.947, 0.5523, 0.7206,-0.0588,-1.3057,-0.0575,-2.2778, 1.4190,-0.8910, 0.0246
09-Sep-2020 11:12:40.957, 0.5284, 0.7584,-0.0298,-1.3616,-0.2255,-2.3119, 1.4308,-0.9153, 0.0401
09-Sep-2020 11:12:40.967, 0.4554, 0.7829,-0.0703,-1.2664,-0.3259,-2.2788, 1.4420,-0.9397, 0.0571
09-Sep-2020 11:12:40.977, 0.5675, 0.7075,-0.1138,-1.1559, 0.0249,-2.0521, 1.4527,-0.9636, 0.0738
09-Sep-2020 11:12:40.987, 0.6252, 0.7755,-0.0547,-0.9929, 0.2912,-1.6325, 1.4662,-0.9849, 0.0900
09-Sep-2020 11:12:40.997, 0.6434, 0.8296,-0.0587,-0.7981, 0.4542,-1.1594, 1.4817,-1.0020, 0.1050
09-Sep-2020 11:12:41.007, 0.6151, 0.7703,-0.0249,-0.6475, 0.6177,-0.9399, 1.4973,-1.0142, 0.1181
09-Sep-2020 11:12:41.019, 0.5267, 0.6947, 0.0877,-0.6830, 0.6465,-0.7345, 1.5130,-1.0239, 0.1294
09-Sep-2020 11:12:41.027, 0.6083, 0.6478, 0.1620,-0.7248, 0.4000,-0.6891, 1.5298,-1.0316, 0.1417
09-Sep-2020 11:12:41.036, 0.5843, 0.8414, 0.0785,-0.6583, 0.0490,-0.9066, 1.5453,-1.0388, 0.1552
09-Sep-2020 11:12:41.047, 0.5023, 0.9884, 0.0341,-0.5607, 0.0608,-1.0606, 1.5569,-1.0478, 0.1678
09-Sep-2020 11:12:41.057, 0.5403, 1.0907, 0.0396,-0.4393, 0.3817,-1.0216, 1.5672,-1.0582, 0.1788
09-Sep-2020 11:12:41.066, 0.4986, 1.1682, 0.0482,-0.3438, 0.8382,-0.9548, 1.5790,-1.0682, 0.1878
09-Sep-2020 11:12:41.076, 0.4057, 1.1557, 0.0705,-0.2433, 0.9245,-0.9820, 1.5936,-1.0777, 0.1952
09-Sep-2020 11:12:41.087, 0.4183, 1.0999,-0.0049,-0.1271, 0.7271,-1.0677, 1.6077,-1.0873, 0.2009
09-Sep-2020 11:12:41.096, 0.4743, 1.0197,-0.0056,-0.0434, 0.5807,-1.1583, 1.6182,-1.0978, 0.2046
09-Sep-2020 11:12:41.106, 0.4982, 0.9010, 0.0510,-0.0613, 0.4158,-1.2173, 1.6260,-1.1092, 0.2069
09-Sep-2020 11:12:41.116, 0.5166, 0.7888, 0.0786,-0.1295, 0.2207,-1.2018, 1.6328,-1.1212, 0.2099
09-Sep-2020 11:12:41.126, 0.5136, 0.7664, 0.0737,-0.1716, 0.0387,-1.1277, 1.6392,-1.1329, 0.2146
09-Sep-2020 11:12:41.136, 0.4898, 0.8131, 0.0855,-0.1836,-0.1008,-1.0342, 1.6449,-1.1439, 0.2204
09-Sep-2020 11:12:41.146, 0.4321, 0.8765, 0.0759,-0.1719,-0.1827,-0.9779, 1.6496,-1.1540, 0.2266
09-Sep-2020 11:12:41.156, 0.3499, 0.9060, 0.0430,-0.1554,-0.1981,-0.9197, 1.6534,-1.1635, 0.2328
09-Sep-2020 11:12:41.166, 0.3255, 0.9279, 0.0225,-0.1472,-0.1345,-0.8258, 1.6568,-1.1724, 0.2386
09-Sep-2020 11:12:41.176, 0.3651, 0.9724, 0.0036,-0.1323,-0.0438,-0.7363, 1.6607,-1.1804, 0.2442
09-Sep-2020 11:12:41.187, 0.3636, 0.9894, 0.0117,-0.1216, 0.1426,-0.7005, 1.6651,-1.1875, 0.2493
09-Sep-2020 11:12:41.196, 0.3655, 0.9825, 0.0341,-0.1137, 0.4054,-0.6721, 1.6711,-1.1943, 0.2543
09-Sep-2020 11:12:41.206, 0.3639, 0.9918, 0.0302,-0.1144, 0.6405,-0.6515, 1.6797,-1.2008, 0.2592
09-Sep-2020 11:12:41.216, 0.3412, 1.0008, 0.0247,-0.1164, 0.7434,-0.6270, 1.6907,-1.2070, 0.2643
09-Sep-2020 11:12:41.226, 0.3167, 1.0099, 0.0168,-0.0852, 0.6889,-0.6578, 1.7030,-1.2130, 0.2696
09-Sep-2020 11:12:41.236, 0.2898, 1.0086, 0.0134,-0.0321, 0.5881,-0.7374, 1.7144,-1.2194, 0.2745
09-Sep-2020 11:12:41.246, 0.2943, 0.9900, 0.0215, 0.0731, 0.4136,-0.8199, 1.7238,-1.2265, 0.2783
09-Sep-2020 11:12:41.255, 0.3202, 0.9664, 0.0247, 0.1007, 0.1838,-0.8763, 1.7295,-1.2346, 0.2800
09-Sep-2020 11:12:41.265, 0.3557, 0.9213, 0.0534,-0.0323,-0.0349,-0.8850, 1.7326,-1.2433, 0.2813
09-Sep-2020 11:12:41.275, 0.3765, 0.8473, 0.0938,-0.3548,-0.2245,-0.8078, 1.7377,-1.2518, 0.2871
09-Sep-2020 11:12:41.285, 0.3880, 0.8027, 0.1200,-0.6595,-0.4241,-0.6046, 1.7502,-1.2589, 0.3026
09-Sep-2020 11:12:41.296, 0.3882, 0.9059, 0.1048,-0.7068,-0.4852,-0.3733, 1.7692,-1.2635, 0.3268
09-Sep-2020 11:12:41.305, 0.3577, 0.9473, 0.0656,-0.6177,-0.4280,-0.2195, 1.7882,-1.2657, 0.3518
09-Sep-2020 11:12:41.315, 0.3295, 0.9520, 0.0573,-0.5338,-0.1963,-0.1635, 1.8046,-1.2665, 0.3733
09-Sep-2020 11:12:41.325, 0.3038, 0.9508, 0.0693,-0.4348,-0.0622,-0.1907, 1.8201,-1.2668, 0.3917
09-Sep-2020 11:12:41.335, 0.2813, 0.9203, 0.0610,-0.3322,-0.1071,-0.2227, 1.8340,-1.2675, 0.4071
09-Sep-2020 11:12:41.345, 0.2741, 1.0211,-0.0623,-0.1249,-0.1563,-0.2493, 1.8432,-1.2689, 0.4184
09-Sep-2020 11:12:41.355, 0.2501, 0.9168, 0.1325,-0.1626,-0.0461,-0.1702, 1.8475,-1.2708, 0.4247
09-Sep-2020 11:12:41.365, 0.2524, 0.8889, 0.0536,-0.0564,-0.1520,-0.1401, 1.8518,-1.2721, 0.4302
09-Sep-2020 11:12:41.375, 0.2268, 0.9091, 0.0720,-0.0708,-0.1396,-0.0971, 1.8525,-1.2732, 0.4329
09-Sep-2020 11:12:41.385, 0.2049, 0.8880, 0.1108,-0.0817,-0.0960,-0.0363, 1.8536,-1.2739, 0.4357
09-Sep-2020 11:12:41.395, 0.1812, 0.8726, 0.1337,-0.0881, 0.0268, 0.0267, 1.8554,-1.2740, 0.4385
09-Sep-2020 11:12:41.405, 0.1532, 0.8579, 0.1441,-0.0750, 0.1695, 0.0792, 1.8580,-1.2734, 0.4409
09-Sep-2020 11:12:41.415, 0.1217, 0.8663, 0.1156,-0.0253, 0.2505, 0.0465, 1.8611,-1.2725, 0.4424
09-Sep-2020 11:12:41.425, 0.0827, 0.8996, 0.0581, 0.0709, 0.2254,-0.1027, 1.8637,-1.2720, 0.4426
09-Sep-2020 11:12:41.435, 0.0384, 0.9499, 0.0019, 0.0709, 0.2254,-0.1027, 1.8645,-1.2732, 0.4412
09-Sep-2020 11:12:41.445,-0.0125, 1.0071,-0.0166, 0.3018, 0.1341,-0.6915, 1.8634,-1.2772, 0.4383
09-Sep-2020 11:12:41.455,-0.0608, 1.0679,-0.0073, 0.3978, 0.0949,-1.0321, 1.8615,-1.2846, 0.4349
09-Sep-2020 11:12:41.464,-0.0725, 1.1029, 0.0189, 0.4187,-0.0246,-1.3741, 1.8594,-1.2955, 0.4318
09-Sep-2020 11:12:41.475,-0.0302, 1.0981, 0.0573, 0.3528,-0.2012,-1.6636, 1.8586,-1.3097, 0.4314
09-Sep-2020 11:12:41.485, 0.0621, 1.0596, 0.0872, 0.2498,-0.3701,-1.8634, 1.8617,-1.3264, 0.4366
09-Sep-2020 11:12:41.494, 0.1796, 0.9955, 0.0995, 0.1667,-0.4893,-1.9349, 1.8703,-1.3448, 0.4492
09-Sep-2020 11:12:41.504, 0.2879, 0.9112, 0.0962, 0.1407,-0.5545,-1.8487, 1.8841,-1.3635, 0.4683
09-Sep-2020 11:12:41.514, 0.3367, 0.8261, 0.1005, 0.1407,-0.5545,-1.8487, 1.9004,-1.3813, 0.4904
09-Sep-2020 11:12:41.524, 0.3264, 0.7567, 0.1022, 0.2701,-0.4159,-1.4738, 1.9154,-1.3974, 0.5108
09-Sep-2020 11:12:41.534, 0.2836, 0.7312, 0.0542, 0.3749,-0.3047,-1.4446, 1.9259,-1.4122, 0.5258
09-Sep-2020 11:12:41.544, 0.2156, 0.6414, 0.0928, 0.4753,-0.2752,-1.4786, 1.9328,-1.4269, 0.5358
09-Sep-2020 11:12:41.554, 0.1720, 0.5176,-0.0110, 0.6232,-0.5891,-1.5988, 1.9349,-1.4424, 0.5410
09-Sep-2020 11:12:41.564, 0.1748, 0.4796, 0.0086, 0.6946,-0.8927,-1.5812, 1.9276,-1.4593, 0.5396
09-Sep-2020 11:12:41.574, 0.3204, 0.4812, 0.0574, 0.6447,-1.0760,-1.2375, 1.9074,-1.4761, 0.5281
09-Sep-2020 11:12:41.584, 0.3329, 0.5335, 0.1970, 0.3481,-0.8438,-0.8962, 1.8734,-1.4897, 0.5045
09-Sep-2020 11:12:41.594, 0.2458, 0.8575, 0.2857, 0.2046,-0.6137,-0.5634, 1.8536,-1.4992, 0.4930
09-Sep-2020 11:12:41.604, 0.1863, 1.3232, 0.0562, 0.1468,-0.1657,-0.2900, 1.8424,-1.5051, 0.4878
09-Sep-2020 11:12:41.614, 0.0974, 1.6451, 0.1437, 0.0016,-0.0420, 0.0764, 1.8339,-1.5081, 0.4811
09-Sep-2020 11:12:41.624, 0.2166, 2.2693,-0.1012,-0.0116,-0.2238, 0.7567, 1.8291,-1.5071, 0.4765
09-Sep-2020 11:12:41.634, 0.3627, 2.5242,-0.2325,-0.0366,-0.4929, 1.2872, 1.8017,-1.4998, 0.4514
09-Sep-2020 11:12:41.644, 0.0891, 2.1160,-0.1647,-0.2439,-0.6909, 1.2998, 1.7680,-1.4874, 0.4226
09-Sep-2020 11:12:41.654,-0.1799, 1.6176, 0.0295,-0.4690,-0.5153, 1.0054, 1.7601,-1.4744, 0.4214
09-Sep-2020 11:12:41.664,-0.2729, 1.2416, 0.1086,-0.6002,-0.1158, 0.6499, 1.7796,-1.4636, 0.4460
09-Sep-2020 11:12:41.674,-0.2695, 0.9888, 0.1128,-0.5907, 0.3725, 0.3244, 1.8164,-1.4559, 0.4841
09-Sep-2020 11:12:41.683,-0.1880, 0.8417, 0.0740,-0.4377, 0.7534, 0.1005, 1.8597,-1.4511, 0.5241
09-Sep-2020 11:12:41.694,-0.0433, 0.7545, 0.0013,-0.1974, 0.7448,-0.0074, 1.8975,-1.4487, 0.5549
09-Sep-2020 11:12:41.704, 0.1013, 0.7479,-0.0782,-0.0204, 0.3210,-0.1269, 1.9198,-1.4481, 0.5702
09-Sep-2020 11:12:41.714, 0.1984, 0.7904,-0.0990, 0.0807,-0.0683,-0.1848, 1.9279,-1.4491, 0.5751
09-Sep-2020 11:12:41.723, 0.2129, 0.8529,-0.0116, 0.1107,-0.3024,-0.1910, 1.9261,-1.4510, 0.5738
09-Sep-2020 11:12:41.733, 0.1907, 0.9418, 0.0551, 0.0601,-0.4030,-0.1577, 1.9197,-1.4531, 0.5704
09-Sep-2020 11:12:41.743, 0.1650, 0.9669, 0.1112,-0.0174,-0.3236,-0.1233, 1.9152,-1.4547, 0.5698
09-Sep-2020 11:12:41.753, 0.0979, 1.0193, 0.1559,-0.1541,-0.0770,-0.1145, 1.9175,-1.4558, 0.5751
09-Sep-2020 11:12:41.763, 0.0679, 1.0385, 0.1432,-0.2014,-0.0061,-0.1498, 1.9315,-1.4563, 0.5902
09-Sep-2020 11:12:41.773, 0.0506, 1.0091, 0.1069,-0.2137,-0.0119,-0.1779, 1.9517,-1.4569, 0.6106
09-Sep-2020 11:12:41.783, 0.0719, 0.9606, 0.0690,-0.2137,-0.0872,-0.1680, 1.9741,-1.4577, 0.6333
09-Sep-2020 11:12:41.793, 0.0567, 0.8841, 0.0395,-0.1951,-0.2763,-0.1865, 1.9958,-1.4583, 0.6561
09-Sep-2020 11:12:41.803, 0.0146, 0.8218, 0.0352,-0.1965,-0.4200,-0.2582, 2.0155,-1.4591, 0.6786
09-Sep-2020 11:12:41.813,-0.0035, 0.8184, 0.0430,-0.1434,-0.5302,-0.3483, 2.0365,-1.4606, 0.7039
09-Sep-2020 11:12:41.823, 0.0040, 0.8052, 0.0223,-0.0194,-0.6012,-0.4187, 2.0561,-1.4630, 0.7290
09-Sep-2020 11:12:41.833,-0.0058, 0.7803, 0.0136, 0.1058,-0.6979,-0.4911, 2.0698,-1.4665, 0.7489
09-Sep-2020 11:12:41.843,-0.0158, 0.7891,-0.0191, 0.2818,-0.7710,-0.5560, 2.0758,-1.4712, 0.7618
09-Sep-2020 11:12:41.853,-0.0232, 0.8448,-0.0360, 0.3583,-0.8473,-0.6443, 2.0701,-1.4774, 0.7638
09-Sep-2020 11:12:41.863,-0.0190, 0.9383,-0.0449, 0.3496,-0.8772,-0.7328, 2.0603,-1.4847, 0.7624
09-Sep-2020 11:12:41.872,-0.0260, 1.0529,-0.0493, 0.2714,-0.7227,-0.8292, 2.0558,-1.4927, 0.7666
09-Sep-2020 11:12:41.883,-0.0313, 1.2001,-0.0472, 0.2805,-0.3503,-0.8878, 2.0673,-1.5012, 0.7852
09-Sep-2020 11:12:41.892,-0.0343, 1.3180, 0.0115, 0.3431, 0.2120,-0.8351, 2.0907,-1.5102, 0.8120
09-Sep-2020 11:12:41.902, 0.0024, 1.3500, 0.1077, 0.4499, 0.8489,-0.6470, 2.1129,-1.5190, 0.8320
09-Sep-2020 11:12:41.913, 0.0252, 1.3253, 0.1622, 0.4829, 1.2729,-0.3779, 2.1088,-1.5266, 0.8197
09-Sep-2020 11:12:41.922, 0.0230, 1.2428, 0.1973, 0.3322, 1.3021,-0.1415, 2.0664,-1.5322, 0.7648
09-Sep-2020 11:12:41.932, 0.0148, 1.1418, 0.2276, 0.1046, 0.9679, 0.0242, 2.0167,-1.5349, 0.7023
09-Sep-2020 11:12:41.942,-0.0162, 1.0606, 0.1960,-0.0731, 0.4089, 0.0564, 1.9954,-1.5352, 0.6716
09-Sep-2020 11:12:41.952,-0.0507, 0.9912, 0.1323,-0.1524,-0.2144, 0.0193, 2.0085,-1.5344, 0.6806
09-Sep-2020 11:12:41.962,-0.0619, 0.9329, 0.0832,-0.1671,-0.7923,-0.0068, 2.0383,-1.5335, 0.7126
09-Sep-2020 11:12:41.972,-0.0565, 0.9241, 0.0586,-0.1360,-1.1248, 0.0005, 2.0678,-1.5328, 0.7499
09-Sep-2020 11:12:41.982,-0.0521, 0.9453, 0.0546,-0.0898,-1.2020, 0.0104, 2.0856,-1.5321, 0.7788
09-Sep-2020 11:12:41.992,-0.0506, 0.9845, 0.0449,-0.0583,-1.1399, 0.0083, 2.0909,-1.5315, 0.7960
09-Sep-2020 11:12:42.002,-0.0500, 1.0105, 0.0308,-0.0546,-1.0657,-0.0078, 2.0903,-1.5311, 0.8067
09-Sep-2020 11:12:42.012,-0.0457, 1.0120, 0.0192,-0.0669,-1.0319,-0.0272, 2.0911,-1.5308, 0.8182
09-Sep-2020 11:12:42.022,-0.0377, 1.0020, 0.0146,-0.0790,-1.0186,-0.0314, 2.0966,-1.5307, 0.8340
09-Sep-2020 11:12:42.032,-0.0335, 1.0002, 0.0208,-0.0897,-0.9988,-0.0356, 2.1055,-1.5305, 0.8531
09-Sep-2020 11:12:42.042,-0.0309, 0.9997, 0.0276,-0.1136,-0.9572,-0.0416, 2.1177,-1.5303, 0.8752
09-Sep-2020 11:12:42.052,-0.0267, 0.9909, 0.0218,-0.1028,-0.9169,-0.0556, 2.1350,-1.5300, 0.9021
09-Sep-2020 11:12:42.062,-0.0264, 0.9828, 0.0107,-0.0549,-0.8910,-0.0672, 2.1520,-1.5299, 0.9282
09-Sep-2020 11:12:42.071,-0.0147, 0.9907, 0.0192,-0.0187,-0.8620,-0.0846, 2.1616,-1.5301, 0.9467
09-Sep-2020 11:12:42.082,-0.0001, 1.0219, 0.0373,-0.0357,-0.8238,-0.1273, 2.1678,-1.5306, 0.9615
09-Sep-2020 11:12:42.091, 0.0263, 1.0256, 0.0459,-0.0363,-0.8005,-0.1278, 2.1824,-1.5314, 0.9843
09-Sep-2020 11:12:42.101, 0.0440, 0.9865, 0.0453,-0.0557,-0.7754,-0.0727, 2.1993,-1.5321, 1.0092
09-Sep-2020 11:12:42.111, 0.0346, 0.9817, 0.0699,-0.1955,-0.8401,-0.1042, 2.2164,-1.5324, 1.0341
09-Sep-2020 11:12:42.121, 0.0204, 1.0153, 0.0418,-0.3665,-0.9081,-0.1284, 2.2620,-1.5319, 1.0882
09-Sep-2020 11:12:42.131, 0.0267, 1.0170, 0.0378,-0.4768,-0.8106,-0.1362, 2.3408,-1.5304, 1.1760
09-Sep-2020 11:12:42.141, 0.0177, 0.9936, 0.0351,-0.4013,-0.6421,-0.1302, 2.4307,-1.5280, 1.2740
09-Sep-2020 11:12:42.151, 0.0038, 0.9657, 0.0036,-0.2058,-0.5558,-0.1446, 2.5012,-1.5257, 1.3510
09-Sep-2020 11:12:42.161,-0.0184, 0.9592,-0.0190,-0.0199,-0.5741,-0.1880, 2.5460,-1.5248, 1.4015
09-Sep-2020 11:12:42.171,-0.0235, 0.9764,-0.0135, 0.1164,-0.6208,-0.2387, 2.5756,-1.5257, 1.4369
09-Sep-2020 11:12:42.181,-0.0197, 0.9845, 0.0087, 0.1898,-0.6718,-0.2685, 2.5996,-1.5279, 1.4671
09-Sep-2020 11:12:42.191,-0.0104, 0.9920, 0.0266, 0.2052,-0.7307,-0.2866, 2.6239,-1.5308, 1.4981
09-Sep-2020 11:12:42.201, 0.0015, 0.9918, 0.0403, 0.1840,-0.7681,-0.2928, 2.6543,-1.5339, 1.5358
09-Sep-2020 11:12:42.211, 0.0065, 0.9929, 0.0515, 0.1319,-0.7772,-0.2964, 2.6949,-1.5369, 1.5840
09-Sep-2020 11:12:42.221, 0.0181, 1.0021, 0.0592, 0.0448,-0.7617,-0.3042, 2.7512,-1.5393, 1.6481
09-Sep-2020 11:12:42.231, 0.0296, 1.0072, 0.0618,-0.0315,-0.7064,-0.3099, 2.8282,-1.5408, 1.7327
09-Sep-2020 11:12:42.241, 0.0375, 1.0037, 0.0585,-0.0550,-0.6348,-0.3328, 2.9216,-1.5413, 1.8331
09-Sep-2020 11:12:42.251, 0.0384, 0.9944, 0.0485,-0.0454,-0.5832,-0.3586, 3.0267,-1.5414, 1.9447
09-Sep-2020 11:12:42.261, 0.0394, 0.9953, 0.0468,-0.0235,-0.5657,-0.3646, 3.1397,-1.5412, 2.0635
09-Sep-2020 11:12:42.271, 0.0366, 0.9902, 0.0526,-0.0019,-0.5784,-0.3542,-3.0304,-1.5408, 2.1823
09-Sep-2020 11:12:42.281, 0.0229, 0.9810, 0.0597, 0.0248,-0.6159,-0.3167,-2.9239,-1.5403, 2.2947
09-Sep-2020 11:12:42.291,-0.0009, 0.9880, 0.0537, 0.0586,-0.6459,-0.2544,-2.8314,-1.5397, 2.3933
09-Sep-2020 11:12:42.301,-0.0215, 1.0177, 0.0411, 0.0941,-0.6721,-0.1951,-2.7567,-1.5395, 2.4745
09-Sep-2020 11:12:42.310,-0.0440, 1.0257, 0.0311, 0.1135,-0.6976,-0.1681,-2.6954,-1.5396, 2.5425
09-Sep-2020 11:12:42.320,-0.0570, 1.0146, 0.0358, 0.0964,-0.6911,-0.1892,-2.6387,-1.5399, 2.6062
09-Sep-2020 11:12:42.331,-0.0547, 0.9922, 0.0390, 0.0802,-0.6227,-0.2214,-2.5784,-1.5398, 2.6734
09-Sep-2020 11:12:42.340,-0.0430, 0.9896, 0.0337, 0.0548,-0.4984,-0.2399,-2.5134,-1.5393, 2.7446
09-Sep-2020 11:12:42.350,-0.0158, 1.0025, 0.0344, 0.0115,-0.3317,-0.2303,-2.4508,-1.5384, 2.8122
09-Sep-2020 11:12:42.360, 0.0111, 1.0120, 0.0333,-0.0460,-0.1521,-0.2037,-2.4012,-1.5370, 2.8651
09-Sep-2020 11:12:42.370, 0.0318, 1.0138, 0.0281,-0.0794, 0.0286,-0.1783,-2.3698,-1.5354, 2.8980
09-Sep-2020 11:12:42.380, 0.0449, 1.0074, 0.0212,-0.0868, 0.1698,-0.1505,-2.3508,-1.5337, 2.9169
09-Sep-2020 11:12:42.390, 0.0575, 0.9956, 0.0176,-0.0641, 0.2690,-0.1194,-2.3380,-1.5321, 2.9280
09-Sep-2020 11:12:42.400, 0.0637, 0.9867, 0.0166,-0.0258, 0.3147,-0.0948,-2.3267,-1.5309, 2.9367
09-Sep-2020 11:12:42.410, 0.0588, 0.9843, 0.0209, 0.0096, 0.3286,-0.0843,-2.3128,-1.5301, 2.9475
09-Sep-2020 11:12:42.420, 0.0545, 0.9875, 0.0292, 0.0148, 0.3095,-0.0720,-2.2949,-1.5296, 2.9621
09-Sep-2020 11:12:42.430, 0.0539, 0.9830, 0.0346,-0.0030, 0.2794,-0.0455,-2.2787,-1.5292, 2.9753
09-Sep-2020 11:12:42.440, 0.0495, 0.9877, 0.0315,-0.0205, 0.2441,-0.0229,-2.2700,-1.5289, 2.9812
09-Sep-2020 11:12:42.450, 0.0414, 0.9952, 0.0246,-0.0328, 0.1972,-0.0017,-2.2680,-1.5287, 2.9808
09-Sep-2020 11:12:42.460, 0.0228, 0.9999, 0.0210,-0.0540, 0.1343, 0.0165,-2.2723,-1.5286, 2.9745
09-Sep-2020 11:12:42.470,-0.0011, 0.9912, 0.0138,-0.0372, 0.0734, 0.0257,-2.2832,-1.5284, 2.9623
09-Sep-2020 11:12:42.479,-0.0122, 1.0012, 0.0088,-0.0491, 0.0557,-0.0081,-2.2933,-1.5284, 2.9514
09-Sep-2020 11:12:42.490, 0.0007, 1.0208, 0.0249,-0.0575, 0.1387,-0.0281,-2.3003,-1.5281, 2.9438
09-Sep-2020 11:12:42.499, 0.0187, 1.0037, 0.0249,-0.0193, 0.2443, 0.0206,-2.3052,-1.5277, 2.9376
09-Sep-2020 11:12:42.509, 0.0108, 0.9967, 0.0200, 0.0092, 0.3031, 0.0765,-2.3120,-1.5279, 2.9284
09-Sep-2020 11:12:42.519,-0.0118, 1.0071, 0.0173, 0.0154, 0.3189, 0.1151,-2.3219,-1.5286, 2.9155
09-Sep-2020 11:12:42.530,-0.0272, 1.0082, 0.0274, 0.0050, 0.3444, 0.1494,-2.3373,-1.5297, 2.8969
09-Sep-2020 11:12:42.540,-0.0464, 1.0020, 0.0382, 0.0087, 0.3471, 0.1532,-2.3601,-1.5309, 2.8707
09-Sep-2020 11:12:42.549,-0.0658, 0.9960, 0.0441, 0.0171, 0.3230, 0.1253,-2.3839,-1.5322, 2.8434
09-Sep-2020 11:12:42.559,-0.0830, 0.9913, 0.0517, 0.0173, 0.2880, 0.0715,-2.4017,-1.5332, 2.8224
09-Sep-2020 11:12:42.569,-0.0802, 0.9904, 0.0585, 0.0086, 0.2656, 0.0327,-2.4111,-1.5340, 2.8102
09-Sep-2020 11:12:42.580,-0.0682, 0.9904, 0.0567, 0.0072, 0.2417, 0.0266,-2.4155,-1.5344, 2.8031
09-Sep-2020 11:12:42.589,-0.0552, 0.9898, 0.0441, 0.0105, 0.2011, 0.0387,-2.4190,-1.5348, 2.7972
09-Sep-2020 11:12:42.599,-0.0438, 0.9878, 0.0271, 0.0214, 0.1581, 0.0587,-2.4242,-1.5352, 2.7900
09-Sep-2020 11:12:42.609,-0.0369, 0.9885, 0.0129, 0.0418, 0.1090, 0.0798,-2.4318,-1.5358, 2.7809
09-Sep-2020 11:12:42.619,-0.0329, 0.9986,-0.0029, 0.1004, 0.0349, 0.0870,-2.4400,-1.5368, 2.7716
09-Sep-2020 11:12:42.629,-0.0376, 1.0080,-0.0030, 0.1004, 0.0349, 0.0870,-2.4405,-1.5381, 2.7707
09-Sep-2020 11:12:42.639,-0.0304, 0.9934, 0.0291, 0.0791,-0.0071, 0.0889,-2.4375,-1.5395, 2.7738
09-Sep-2020 11:12:42.649,-0.0206, 0.9976, 0.0441, 0.0638,-0.0215, 0.0981,-2.4425,-1.5406, 2.7688
09-Sep-2020 11:12:42.659,-0.0141, 1.0112, 0.0319, 0.0873,-0.0632, 0.1073,-2.4540,-1.5418, 2.7576
09-Sep-2020 11:12:42.669,-0.0092, 1.0244, 0.0247, 0.1150,-0.1173, 0.1308,-2.4654,-1.5431, 2.7469
09-Sep-2020 11:12:42.679,-0.0052, 1.0283, 0.0304, 0.1173,-0.1821, 0.1668,-2.4792,-1.5449, 2.7342
09-Sep-2020 11:12:42.689,-0.0059, 1.0098, 0.0518, 0.0662,-0.1947, 0.1809,-2.5056,-1.5468, 2.7096
09-Sep-2020 11:12:42.699,-0.0059, 0.9906, 0.0655, 0.0076,-0.1557, 0.2063,-2.5547,-1.5485, 2.6624
09-Sep-2020 11:12:42.709,-0.0034, 0.9951, 0.0446,-0.0453,-0.1091, 0.2233,-2.6347,-1.5497, 2.5840
09-Sep-2020 11:12:42.719,-0.0094, 0.9951, 0.0188,-0.0791,-0.0857, 0.2331,-2.7415,-1.5503, 2.4783
09-Sep-2020 11:12:42.729,-0.0168, 0.9960, 0.0022,-0.0893,-0.0683, 0.2231,-2.8635,-1.5504, 2.3571
09-Sep-2020 11:12:42.739,-0.0288, 0.9983, 0.0069,-0.0848, 0.0112, 0.1902,-2.9808,-1.5500, 2.2405
09-Sep-2020 11:12:42.749,-0.0293, 0.9961, 0.0116,-0.0717, 0.1102, 0.1641,-3.0774,-1.5495, 2.1437
09-Sep-2020 11:12:42.758,-0.0271, 0.9917, 0.0096,-0.0489, 0.1962, 0.1463, 3.1277,-1.5488, 2.0645
09-Sep-2020 11:12:42.768,-0.0284, 0.9916, 0.0019,-0.0158, 0.2499, 0.1321, 3.0622,-1.5483, 1.9971
09-Sep-2020 11:12:42.778,-0.0340, 0.9881,-0.0101, 0.0312, 0.2350, 0.1246, 3.0051,-1.5480, 1.9375
09-Sep-2020 11:12:42.789,-0.0357, 0.9871,-0.0090, 0.0545, 0.2002, 0.1207, 2.9494,-1.5481, 1.8795
09-Sep-2020 11:12:42.798,-0.0345, 0.9914, 0.0054, 0.0515, 0.1936, 0.1231, 2.8918,-1.5483, 1.8198
09-Sep-2020 11:12:42.808,-0.0350, 0.9966, 0.0148, 0.0386, 0.1956, 0.1294, 2.8319,-1.5485, 1.7580
09-Sep-2020 11:12:42.818,-0.0357, 0.9973, 0.0197, 0.0386, 0.1956, 0.1294, 2.7719,-1.5485, 1.6961
09-Sep-2020 11:12:42.828,-0.0395, 0.9910, 0.0281, 0.0081, 0.2036, 0.1085, 2.7189,-1.5483, 1.6411
09-Sep-2020 11:12:42.838,-0.0387, 0.9954, 0.0322,-0.0002, 0.2073, 0.0989, 2.6744,-1.5479, 1.5946
09-Sep-2020 11:12:42.848,-0.0374, 0.9949, 0.0426,-0.0071, 0.2144, 0.0854, 2.6366,-1.5475, 1.5546
09-Sep-2020 11:12:42.858,-0.0365, 0.9932, 0.0512,-0.0112, 0.2157, 0.0681, 2.6064,-1.5471, 1.5223
09-Sep-2020 11:12:42.868,-0.0340, 0.9928, 0.0569,-0.0225, 0.2058, 0.0509, 2.5847,-1.5467, 1.4985
09-Sep-2020 11:12:42.878,-0.0267, 0.9922, 0.0617,-0.0298, 0.1830, 0.0362, 2.5717,-1.5463, 1.4835
09-Sep-2020 11:12:42.888,-0.0179, 0.9926, 0.0670,-0.0353, 0.1664, 0.0242, 2.5659,-1.5459, 1.4759
09-Sep-2020 11:12:42.898,-0.0092, 0.9934, 0.0682,-0.0437, 0.1516, 0.0096, 2.5661,-1.5455, 1.4744
09-Sep-2020 11:12:42.908,-0.0015, 0.9903, 0.0656,-0.0456, 0.1461,-0.0055, 2.5727,-1.5452, 1.4794
09-Sep-2020 11:12:42.918, 0.0076, 0.9879, 0.0634,-0.0466, 0.1509,-0.0193, 2.5845,-1.5448, 1.4899
09-Sep-2020 11:12:42.928, 0.0125, 0.9884, 0.0629,-0.0481, 0.1614,-0.0366, 2.6010,-1.5446, 1.5048
09-Sep-2020 11:12:42.938, 0.0193, 0.9900, 0.0655,-0.0469, 0.1877,-0.0396, 2.6226,-1.5443, 1.5248
09-Sep-2020 11:12:42.947, 0.0262, 0.9926, 0.0648,-0.0429, 0.2174,-0.0382, 2.6454,-1.5441, 1.5458
09-Sep-2020 11:12:42.957, 0.0305, 0.9925, 0.0659,-0.0406, 0.2484,-0.0406, 2.6671,-1.5439, 1.5653
09-Sep-2020 11:12:42.967, 0.0346, 0.9902, 0.0658,-0.0398, 0.2886,-0.0409, 2.6885,-1.5437, 1.5842
09-Sep-2020 11:12:42.977, 0.0397, 0.9991, 0.0640,-0.0295, 0.3248,-0.0378, 2.7097,-1.5435, 1.6026
09-Sep-2020 11:12:42.987, 0.0414, 1.0087, 0.0604,-0.0257, 0.3215,-0.0270, 2.7284,-1.5434, 1.6181
09-Sep-2020 11:12:42.997, 0.0386, 1.0117, 0.0587,-0.0294, 0.2863,-0.0062, 2.7421,-1.5432, 1.6286
09-Sep-2020 11:12:43.007, 0.0289, 1.0080, 0.0607,-0.0450, 0.2337, 0.0149, 2.7491,-1.5429, 1.6328
09-Sep-2020 11:12:43.017, 0.0189, 1.0047, 0.0558,-0.0548, 0.1751, 0.0296, 2.7506,-1.5424, 1.6320
09-Sep-2020 11:12:43.027, 0.0082, 1.0081, 0.0438,-0.0587, 0.1000, 0.0385, 2.7476,-1.5417, 1.6272
09-Sep-2020 11:12:43.037,-0.0045, 1.0070, 0.0341,-0.0629, 0.0261, 0.0457, 2.7417,-1.5410, 1.6204
09-Sep-2020 11:12:43.047,-0.0132, 1.0019, 0.0261,-0.0618,-0.0342, 0.0571, 2.7334,-1.5402, 1.6119
09-Sep-2020 11:12:43.057,-0.0227, 0.9972, 0.0247,-0.0446,-0.0688, 0.0703, 2.7214,-1.5394, 1.6001
09-Sep-2020 11:12:43.067,-0.0307, 0.9904, 0.0264,-0.0198,-0.0895, 0.0832, 2.7037,-1.5386, 1.5831
09-Sep-2020 11:12:43.077,-0.0345, 0.9888, 0.0310,-0.0021,-0.1014, 0.0909, 2.6799,-1.5380, 1.5602
09-Sep-2020 11:12:43.087,-0.0333, 0.9921, 0.0425, 0.0031,-0.1018, 0.0978, 2.6523,-1.5375, 1.5336
09-Sep-2020 11:12:43.096,-0.0253, 0.9920, 0.0583,-0.0025,-0.0834, 0.0931, 2.6238,-1.5371, 1.5061
09-Sep-2020 11:12:43.107,-0.0152, 0.9886, 0.0720,-0.0088,-0.0704, 0.0964, 2.5976,-1.5365, 1.4808
09-Sep-2020 11:12:43.116,-0.0039, 0.9858, 0.0786,-0.0205,-0.0631, 0.0934, 2.5729,-1.5359, 1.4568
09-Sep-2020 11:12:43.126, 0.0039, 0.9858, 0.0820,-0.0353,-0.0621, 0.0877, 2.5516,-1.5353, 1.4360
09-Sep-2020 11:12:43.136, 0.0116, 0.9835, 0.0767,-0.0521,-0.0618, 0.0773, 2.5352,-1.5345, 1.4204
09-Sep-2020 11:12:43.147, 0.0173, 0.9814, 0.0658,-0.0595,-0.0520, 0.0640, 2.5247,-1.5337, 1.4104
09-Sep-2020 11:12:43.156, 0.0248, 0.9784, 0.0540,-0.0580,-0.0203, 0.0475, 2.5188,-1.5329, 1.4051
09-Sep-2020 11:12:43.166, 0.0334, 0.9739, 0.0429,-0.0472, 0.0392, 0.0339, 2.5168,-1.5322, 1.4032
09-Sep-2020 11:12:43.176, 0.0421, 0.9687, 0.0338,-0.0321, 0.1149, 0.0181, 2.5171,-1.5316, 1.4031
09-Sep-2020 11:12:43.186, 0.0498, 0.9683, 0.0299,-0.0176, 0.2043, 0.0012, 2.5191,-1.5312, 1.4040
09-Sep-2020 11:12:43.197, 0.0561, 0.9740, 0.0286, 0.0039, 0.2936,-0.0053, 2.5227,-1.5311, 1.4056
09-Sep-2020 11:12:43.206, 0.0570, 0.9848, 0.0265, 0.0251, 0.3801,-0.0150, 2.5259,-1.5311, 1.4058
09-Sep-2020 11:12:43.216, 0.0541, 0.9956, 0.0287, 0.0459, 0.4387,-0.0141, 2.5282,-1.5313, 1.4044
09-Sep-2020 11:12:43.226, 0.0443, 1.0050, 0.0327, 0.0627, 0.4675,-0.0041, 2.5276,-1.5317, 1.3994
09-Sep-2020 11:12:43.236, 0.0262, 1.0130, 0.0375, 0.0785, 0.4537, 0.0084, 2.5224,-1.5322, 1.3897
09-Sep-2020 11:12:43.247, 0.0087, 1.0110, 0.0442, 0.0871, 0.4158, 0.0232, 2.5116,-1.5328, 1.3743
09-Sep-2020 11:12:43.256,-0.0105, 1.0076, 0.0526, 0.0855, 0.3685, 0.0278, 2.4953,-1.5333, 1.3539
09-Sep-2020 11:12:43.266,-0.0238, 1.0067, 0.0578, 0.0738, 0.3267, 0.0398, 2.4764,-1.5337, 1.3314
09-Sep-2020 11:12:43.276,-0.0320, 1.0086, 0.0584, 0.0632, 0.2746, 0.0480, 2.4560,-1.5340, 1.3076
09-Sep-2020 11:12:43.286,-0.0369, 1.0047, 0.0556, 0.0537, 0.2127, 0.0583, 2.4345,-1.5342, 1.2834
09-Sep-2020 11:12:43.296,-0.0396, 1.0080, 0.0479, 0.0492, 0.1408, 0.0684, 2.4129,-1.5342, 1.2597
09-Sep-2020 11:12:43.306,-0.0423, 1.0166, 0.0442, 0.0444, 0.0730, 0.0804, 2.3893,-1.5340, 1.2347
09-Sep-2020 11:12:43.316,-0.0472, 1.0105, 0.0462, 0.0421, 0.0131, 0.0901, 2.3637,-1.5338, 1.2083
09-Sep-2020 11:12:43.326,-0.0534, 1.0030, 0.0524, 0.0366,-0.0349, 0.0898, 2.3369,-1.5334, 1.1814
09-Sep-2020 11:12:43.336,-0.0583, 0.9994, 0.0602, 0.0267,-0.0595, 0.0840, 2.3116,-1.5330, 1.1564
09-Sep-2020 11:12:43.346,-0.0614, 0.9996, 0.0701, 0.0205,-0.0662, 0.0747, 2.2894,-1.5325, 1.1348
09-Sep-2020 11:12:43.356,-0.0651, 0.9994, 0.0794, 0.0001,-0.0638, 0.0579, 2.2709,-1.5321, 1.1170
09-Sep-2020 11:12:43.365,-0.0684, 0.9989, 0.0824,-0.0157,-0.0773, 0.0436, 2.2587,-1.5316, 1.1054
09-Sep-2020 11:12:43.375,-0.0686, 0.9975, 0.0773,-0.0245,-0.1080, 0.0288, 2.2539,-1.5312, 1.1014
09-Sep-2020 11:12:43.385,-0.0625, 0.9991, 0.0652,-0.0320,-0.1490, 0.0184, 2.2530,-1.5308, 1.1015
09-Sep-2020 11:12:43.396,-0.0509, 0.9920, 0.0549,-0.0375,-0.1813, 0.0089, 2.2550,-1.5305, 1.1051
09-Sep-2020 11:12:43.405,-0.0372, 0.9860, 0.0473,-0.0397,-0.2056,-0.0035, 2.2593,-1.5302, 1.1112
09-Sep-2020 11:12:43.415,-0.0232, 0.9871, 0.0391,-0.0378,-0.2129,-0.0084, 2.2657,-1.5300, 1.1197
09-Sep-2020 11:12:43.425,-0.0106, 0.9909, 0.0356,-0.0292,-0.2048,-0.0138, 2.2727,-1.5299, 1.1288
09-Sep-2020 11:12:43.435, 0.0011, 0.9979, 0.0356,-0.0200,-0.1918,-0.0221, 2.2792,-1.5298, 1.1373
09-Sep-2020 11:12:43.445, 0.0086, 1.0006, 0.0393,-0.0087,-0.1834,-0.0391, 2.2870,-1.5299, 1.1470
09-Sep-2020 11:12:43.455, 0.0159, 1.0007, 0.0436, 0.0008,-0.1757,-0.0559, 2.2970,-1.5302, 1.1589
09-Sep-2020 11:12:43.465, 0.0302, 0.9980, 0.0435, 0.0025,-0.1755,-0.0684, 2.3058,-1.5306, 1.1694
09-Sep-2020 11:12:43.475, 0.0449, 0.9949, 0.0436, 0.0052,-0.1696,-0.0804, 2.3158,-1.5312, 1.1812
09-Sep-2020 11:12:43.485, 0.0567, 0.9945, 0.0431, 0.0014,-0.1584,-0.0842, 2.3276,-1.5318, 1.1947
09-Sep-2020 11:12:43.495, 0.0671, 0.9960, 0.0401,-0.0023,-0.1396,-0.0856, 2.3408,-1.5325, 1.2095
09-Sep-2020 11:12:43.505, 0.0715, 0.9968, 0.0354,-0.0120,-0.1267,-0.0714, 2.3546,-1.5330, 1.2247
09-Sep-2020 11:12:43.515, 0.0694, 0.9934, 0.0300,-0.0068,-0.1105,-0.0542, 2.3675,-1.5334, 1.2388
09-Sep-2020 11:12:43.525, 0.0583, 0.9927, 0.0250, 0.0024,-0.0932,-0.0447, 2.3767,-1.5338, 1.2492
09-Sep-2020 11:12:43.535, 0.0473, 0.9938, 0.0217, 0.0188,-0.0810,-0.0366, 2.3827,-1.5341, 1.2561
09-Sep-2020 11:12:43.544, 0.0375, 0.9922, 0.0223, 0.0297,-0.0629,-0.0303, 2.3843,-1.5344, 1.2585
09-Sep-2020 11:12:43.554, 0.0287, 0.9982, 0.0253, 0.0364,-0.0552,-0.0293, 2.3821,-1.5348, 1.2569
09-Sep-2020 11:12:43.564, 0.0244, 0.9996, 0.0304, 0.0358,-0.0540,-0.0253, 2.3779,-1.5352, 1.2533
09-Sep-2020 11:12:43.574, 0.0202, 0.9961, 0.0360, 0.0347,-0.0612,-0.0225, 2.3726,-1.5356, 1.2485
09-Sep-2020 11:12:43.584, 0.0155, 0.9939, 0.0378, 0.0291,-0.0820,-0.0193, 2.3668,-1.5359, 1.2434
09-Sep-2020 11:12:43.594, 0.0149, 0.9913, 0.0342, 0.0312,-0.1021,-0.0148, 2.3610,-1.5362, 1.2384
09-Sep-2020 11:12:43.604, 0.0169, 0.9895, 0.0270, 0.0329,-0.1189,-0.0162, 2.3540,-1.5365, 1.2324
09-Sep-2020 11:12:43.614, 0.0158, 0.9854, 0.0224, 0.0337,-0.1282,-0.0092, 2.3460,-1.5368, 1.2257
09-Sep-2020 11:12:43.624, 0.0134, 0.9863, 0.0188, 0.0320,-0.1253,-0.0080, 2.3370,-1.5370, 1.2178
09-Sep-2020 11:12:43.634, 0.0112, 0.9907, 0.0176, 0.0377,-0.1112,-0.0050, 2.3276,-1.5373, 1.2097
09-Sep-2020 11:12:43.644, 0.0072, 0.9948, 0.0201, 0.0384,-0.0943,-0.0038, 2.3170,-1.5375, 1.2003
09-Sep-2020 11:12:43.654, 0.0049, 0.9958, 0.0283, 0.0412,-0.0694,-0.0049, 2.3065,-1.5378, 1.1907
09-Sep-2020 11:12:43.664, 0.0033, 1.0003, 0.0372, 0.0361,-0.0515,-0.0076, 2.2961,-1.5380, 1.1810
09-Sep-2020 11:12:43.674, 0.0030, 1.0053, 0.0428, 0.0315,-0.0419,-0.0077, 2.2869,-1.5383, 1.1723
09-Sep-2020 11:12:43.684, 0.0052, 1.0088, 0.0475, 0.0274,-0.0350,-0.0073, 2.2785,-1.5386, 1.1643
09-Sep-2020 11:12:43.694, 0.0071, 1.0109, 0.0498, 0.0190,-0.0368,-0.0034, 2.2713,-1.5388, 1.1575
09-Sep-2020 11:12:43.704, 0.0106, 1.0120, 0.0455, 0.0090,-0.0493,-0.0016, 2.2654,-1.5389, 1.1520
09-Sep-2020 11:12:43.714, 0.0161, 1.0106, 0.0414, 0.0011,-0.0696, 0.0051, 2.2605,-1.5390, 1.1476
09-Sep-2020 11:12:43.724, 0.0234, 1.0040, 0.0352,-0.0027,-0.0885, 0.0152, 2.2564,-1.5389, 1.1442
09-Sep-2020 11:12:43.734, 0.0311, 0.9921, 0.0299,-0.0080,-0.0911, 0.0263, 2.2519,-1.5388, 1.1406
09-Sep-2020 11:12:43.744, 0.0368, 0.9840, 0.0272,-0.0054,-0.0789, 0.0363, 2.2464,-1.5385, 1.1360
09-Sep-2020 11:12:43.753, 0.0385, 0.9848, 0.0284,-0.0004,-0.0528, 0.0399, 2.2388,-1.5382, 1.1292
09-Sep-2020 11:12:43.764, 0.0355, 0.9890, 0.0296, 0.0095,-0.0240, 0.0398, 2.2296,-1.5378, 1.1205
09-Sep-2020 11:12:43.773, 0.0321, 0.9965, 0.0320, 0.0188, 0.0064, 0.0386, 2.2189,-1.5375, 1.1100
09-Sep-2020 11:12:43.783, 0.0296, 1.0034, 0.0378, 0.0195, 0.0363, 0.0378, 2.2067,-1.5373, 1.0978
09-Sep-2020 11:12:43.793, 0.0277, 1.0066, 0.0410, 0.0196, 0.0693, 0.0400, 2.1945,-1.5371, 1.0852
09-Sep-2020 11:12:43.803, 0.0237, 1.0058, 0.0415, 0.0198, 0.0810, 0.0485, 2.1821,-1.5368, 1.0722
09-Sep-2020 11:12:43.813, 0.0186, 1.0007, 0.0378, 0.0220, 0.0743, 0.0571, 2.1684,-1.5365, 1.0576
09-Sep-2020 11:12:43.823, 0.0136, 0.9953, 0.0336, 0.0273, 0.0525, 0.0678, 2.1527,-1.5361, 1.0412
09-Sep-2020 11:12:43.833, 0.0059, 0.9897, 0.0320, 0.0262, 0.0246, 0.0707, 2.1347,-1.5356, 1.0227
09-Sep-2020 11:12:43.843, 0.0013, 0.9877, 0.0330, 0.0245, 0.0184, 0.0725, 2.1164,-1.5351, 1.0042
09-Sep-2020 11:12:43.853,-0.0043, 0.9857, 0.0355, 0.0180, 0.0160, 0.0698, 2.0991,-1.5346, 0.9867
09-Sep-2020 11:12:43.863,-0.0069, 0.9900, 0.0367, 0.0150, 0.0275, 0.0712, 2.0840,-1.5340, 0.9714
09-Sep-2020 11:12:43.873,-0.0088, 0.9930, 0.0387, 0.0106, 0.0418, 0.0676, 2.0705,-1.5334, 0.9576
09-Sep-2020 11:12:43.883,-0.0103, 0.9964, 0.0389, 0.0059, 0.0466, 0.0662, 2.0590,-1.5328, 0.9457
09-Sep-2020 11:12:43.893,-0.0087, 1.0005, 0.0372, 0.0029, 0.0438, 0.0592, 2.0490,-1.5322, 0.9353
09-Sep-2020 11:12:43.903,-0.0096, 1.0040, 0.0349, 0.0017, 0.0325, 0.0534, 2.0404,-1.5317, 0.9263
09-Sep-2020 11:12:43.913,-0.0102, 1.0088, 0.0329,-0.0042, 0.0056, 0.0450, 2.0331,-1.5312, 0.9186
09-Sep-2020 11:12:43.923,-0.0082, 1.0126, 0.0265,-0.0103,-0.0232, 0.0450, 2.0277,-1.5307, 0.9132
09-Sep-2020 11:12:43.933,-0.0046, 1.0102, 0.0251,-0.0166,-0.0434, 0.0498, 2.0239,-1.5303, 0.9096
09-Sep-2020 11:12:43.943,-0.0010, 1.0069, 0.0252,-0.0245,-0.0547, 0.0504, 2.0212,-1.5297, 0.9074
09-Sep-2020 11:12:43.953, 0.0051, 1.0023, 0.0249,-0.0344,-0.0626, 0.0521, 2.0201,-1.5292, 0.9068
09-Sep-2020 11:12:43.963, 0.0143, 0.9996, 0.0243,-0.0388,-0.0694, 0.0583, 2.0207,-1.5286, 0.9080
09-Sep-2020 11:12:43.972, 0.0237, 0.9981, 0.0206,-0.0408,-0.0800, 0.0682, 2.0218,-1.5279, 0.9098
09-Sep-2020 11:12:43.983, 0.0299, 0.9981, 0.0173,-0.0419,-0.0867, 0.0740, 2.0222,-1.5271, 0.9110
09-Sep-2020 11:12:43.993, 0.0348, 0.9979, 0.0161,-0.0426,-0.0885, 0.0820, 2.0219,-1.5262, 0.9116
09-Sep-2020 11:12:44.002, 0.0364, 0.9982, 0.0135,-0.0388,-0.0901, 0.0861, 2.0207,-1.5253, 0.9113
09-Sep-2020 11:12:44.012, 0.0362, 0.9940, 0.0098,-0.0338,-0.0863, 0.0868, 2.0184,-1.5244, 0.9098
09-Sep-2020 11:12:44.022, 0.0345, 0.9907, 0.0083,-0.0218,-0.0872, 0.0861, 2.0150,-1.5235, 0.9073
09-Sep-2020 11:12:44.032, 0.0300, 0.9882, 0.0057,-0.0193,-0.0878, 0.0849, 2.0099,-1.5226, 0.9031
09-Sep-2020 11:12:44.042, 0.0257, 0.9900, 0.0081,-0.0178,-0.0690, 0.0793, 2.0043,-1.5217, 0.8984
09-Sep-2020 11:12:44.052, 0.0243, 0.9913, 0.0163,-0.0227, 0.0159, 0.0835, 1.9992,-1.5209, 0.8939
09-Sep-2020 11:12:44.065, 0.0279, 0.9945, 0.0184,-0.0182, 0.1736, 0.0802, 1.9953,-1.5200, 0.8899
09-Sep-2020 11:12:44.072, 0.0231, 0.9937, 0.0089,-0.0156, 0.2119, 0.0610, 1.9928,-1.5192, 0.8857
09-Sep-2020 11:12:44.082, 0.0143, 0.9875, 0.0011, 0.0086, 0.0653, 0.0201, 1.9912,-1.5186, 0.8821
09-Sep-2020 11:12:44.092, 0.0325, 0.9834, 0.0229, 0.0203, 0.0404, 0.0160, 1.9875,-1.5183, 0.8777
09-Sep-2020 11:12:44.102, 0.0369, 0.9854, 0.0527, 0.0085, 0.0847, 0.0016, 1.9822,-1.5182, 0.8720
09-Sep-2020 11:12:44.112, 0.0306, 0.9982, 0.0413,-0.0087, 0.0764, 0.0016, 1.9799,-1.5182, 0.8689
09-Sep-2020 11:12:44.121, 0.0529, 1.0034, 0.0221,-0.0316,-0.0369, 0.0339, 1.9803,-1.5182, 0.8686
09-Sep-2020 11:12:44.132, 0.0624, 1.0007, 0.0381,-0.0269,-0.0989, 0.0343, 1.9814,-1.5177, 0.8701
09-Sep-2020 11:12:44.142, 0.0448, 0.9971, 0.0427,-0.0247,-0.1120, 0.0243, 1.9816,-1.5173, 0.8713
09-Sep-2020 11:12:44.151, 0.0512, 0.9933, 0.0385,-0.0280,-0.1118, 0.0305, 1.9818,-1.5169, 0.8725
09-Sep-2020 11:12:44.161, 0.0582, 0.9940, 0.0344,-0.0318,-0.1270, 0.0378, 1.9820,-1.5165, 0.8738
09-Sep-2020 11:12:44.171, 0.0627, 0.9963, 0.0354,-0.0353,-0.1289, 0.0510, 1.9820,-1.5160, 0.8751
09-Sep-2020 11:12:44.181, 0.0634, 0.9980, 0.0405,-0.0345,-0.0996, 0.0676, 1.9821,-1.5154, 0.8766
09-Sep-2020 11:12:44.191, 0.0630, 0.9997, 0.0461,-0.0306,-0.0508, 0.0845, 1.9815,-1.5146, 0.8770
09-Sep-2020 11:12:44.201, 0.0589, 1.0036, 0.0509,-0.0070,-0.0068, 0.0837, 1.9789,-1.5137, 0.8748
09-Sep-2020 11:12:44.211, 0.0525, 1.0104, 0.0552, 0.0296, 0.0241, 0.0832, 1.9727,-1.5128, 0.8688
09-Sep-2020 11:12:44.221, 0.0459, 1.0138, 0.0625, 0.0665, 0.0340, 0.0857, 1.9618,-1.5121, 0.8576
09-Sep-2020 11:12:44.231, 0.0389, 1.0094, 0.0727, 0.0741, 0.0230, 0.0857, 1.9458,-1.5115, 0.8412
09-Sep-2020 11:12:44.241, 0.0377, 1.0079, 0.0837, 0.0299,-0.0193, 0.0888, 1.9290,-1.5109, 0.8242
09-Sep-2020 11:12:44.251, 0.0452, 1.0090, 0.0902,-0.0416,-0.0799, 0.1021, 1.9184,-1.5101, 0.8139
09-Sep-2020 11:12:44.261, 0.0551, 1.0027, 0.0873,-0.1038,-0.1387, 0.1179, 1.9176,-1.5090, 0.8138
09-Sep-2020 11:12:44.271, 0.0585, 0.9942, 0.0732,-0.1238,-0.1838, 0.1230, 1.9243,-1.5075, 0.8219
09-Sep-2020 11:12:44.281, 0.0559, 0.9907, 0.0519,-0.0950,-0.2104, 0.1228, 1.9326,-1.5059, 0.8321
09-Sep-2020 11:12:44.291, 0.0517, 0.9858, 0.0333,-0.0491,-0.2274, 0.1185, 1.9367,-1.5043, 0.8383
09-Sep-2020 11:12:44.301, 0.0453, 0.9800, 0.0226,-0.0022,-0.2450, 0.1128, 1.9346,-1.5030, 0.8384
09-Sep-2020 11:12:44.311, 0.0364, 0.9771, 0.0240, 0.0211,-0.2472, 0.1012, 1.9268,-1.5019, 0.8331
09-Sep-2020 11:12:44.321, 0.0281, 0.9812, 0.0377, 0.0119,-0.2395, 0.0926, 1.9169,-1.5010, 0.8256
09-Sep-2020 11:12:44.331, 0.0208, 0.9924, 0.0499,-0.0036,-0.2157, 0.0755, 1.9087,-1.5001, 0.8198
09-Sep-2020 11:12:44.341, 0.0159, 0.9978, 0.0523,-0.0161,-0.2013, 0.0548, 1.9037,-1.4993, 0.8169
09-Sep-2020 11:12:44.351, 0.0167, 0.9959, 0.0514,-0.0273,-0.2022, 0.0416, 1.9013,-1.4987, 0.8166
09-Sep-2020 11:12:44.361, 0.0184, 0.9926, 0.0507,-0.0426,-0.2029, 0.0256, 1.9010,-1.4981, 0.8183
09-Sep-2020 11:12:44.371, 0.0218, 0.9860, 0.0527,-0.0503,-0.2029, 0.0080, 1.9029,-1.4977, 0.8222
09-Sep-2020 11:12:44.381, 0.0285, 0.9773, 0.0508,-0.0533,-0.1956,-0.0124, 1.9063,-1.4974, 0.8277
09-Sep-2020 11:12:44.390, 0.0374, 0.9702, 0.0465,-0.0423,-0.1692,-0.0288, 1.9107,-1.4973, 0.8341
09-Sep-2020 11:12:44.400, 0.0465, 0.9662, 0.0367,-0.0245,-0.1331,-0.0459, 1.9151,-1.4975, 0.8402
09-Sep-2020 11:12:44.411, 0.0541, 0.9658, 0.0261, 0.0009,-0.0833,-0.0671, 1.9186,-1.4978, 0.8450
09-Sep-2020 11:12:44.420, 0.0593, 0.9712, 0.0196, 0.0223,-0.0279,-0.0806, 1.9206,-1.4984, 0.8478
09-Sep-2020 11:12:44.431, 0.0634, 0.9807, 0.0213, 0.0404, 0.0175,-0.0892, 1.9210,-1.4992, 0.8485
09-Sep-2020 11:12:44.440, 0.0692, 0.9896, 0.0296, 0.0563, 0.0621,-0.0965, 1.9199,-1.5001, 0.8472
09-Sep-2020 11:12:44.450, 0.0753, 0.9968, 0.0493, 0.0569, 0.1066,-0.0965, 1.9175,-1.5012, 0.8442
09-Sep-2020 11:12:44.460, 0.0832, 1.0018, 0.0739, 0.0314, 0.1395,-0.0882, 1.9156,-1.5023, 0.8413
09-Sep-2020 11:12:44.470, 0.0902, 1.0089, 0.0892, 0.0091, 0.1553,-0.0828, 1.9166,-1.5032, 0.8410
09-Sep-2020 11:12:44.480, 0.0962, 1.0106, 0.0855, 0.0091, 0.1553,-0.0828, 1.9203,-1.5039, 0.8430
09-Sep-2020 11:12:44.490, 0.1025, 1.0065, 0.0690, 0.0021, 0.1509,-0.0678, 1.9247,-1.5046, 0.8459
09-Sep-2020 11:12:44.500, 0.1067, 1.0024, 0.0506, 0.0012, 0.1466,-0.0569, 1.9285,-1.5052, 0.8482
09-Sep-2020 11:12:44.510, 0.1054, 1.0038, 0.0383, 0.0018, 0.1458,-0.0426, 1.9316,-1.5057, 0.8499
09-Sep-2020 11:12:44.520, 0.1041, 1.0055, 0.0296, 0.0125, 0.1484,-0.0313, 1.9339,-1.5060, 0.8507
09-Sep-2020 11:12:44.530, 0.0985, 1.0108, 0.0281, 0.0307, 0.1511,-0.0195, 1.9343,-1.5063, 0.8497
09-Sep-2020 11:12:44.540, 0.0883, 1.0154, 0.0311, 0.0428, 0.1441,-0.0101, 1.9321,-1.5065, 0.8460
09-Sep-2020 11:12:44.550, 0.0779, 1.0156, 0.0419, 0.0446, 0.1277, 0.0008, 1.9279,-1.5066, 0.8403
09-Sep-2020 11:12:44.560, 0.0728, 1.0073, 0.0518, 0.0450, 0.0883, 0.0186, 1.9225,-1.5066, 0.8337
09-Sep-2020 11:12:44.569, 0.0741, 0.9987, 0.0554, 0.0581, 0.0356, 0.0336, 1.9152,-1.5065, 0.8255
09-Sep-2020 11:12:44.580, 0.0755, 0.9925, 0.0569, 0.0752,-0.0048, 0.0492, 1.9047,-1.5063, 0.8147
09-Sep-2020 11:12:44.590, 0.0804, 0.9868, 0.0588, 0.0959,-0.0265, 0.0564, 1.8905,-1.5059, 0.8004
09-Sep-2020 11:12:44.600, 0.0862, 0.9789, 0.0659, 0.1111,-0.0230, 0.0596, 1.8728,-1.5056, 0.7829
09-Sep-2020 11:12:44.609, 0.0906, 0.9750, 0.0726, 0.1246,-0.0086, 0.0624, 1.8529,-1.5053, 0.7632
09-Sep-2020 11:12:44.620, 0.0935, 0.9769, 0.0780, 0.1332, 0.0185, 0.0651, 1.8313,-1.5049, 0.7417
09-Sep-2020 11:12:44.630, 0.0935, 0.9850, 0.0839, 0.1293, 0.0496, 0.0695, 1.8091,-1.5045, 0.7193
09-Sep-2020 11:12:44.639, 0.0896, 0.9916, 0.0905, 0.1226, 0.0792, 0.0749, 1.7881,-1.5040, 0.6977
09-Sep-2020 11:12:44.649, 0.0790, 0.9931, 0.0934, 0.1077, 0.0877, 0.0819, 1.7687,-1.5035, 0.6775
09-Sep-2020 11:12:44.659, 0.0654, 0.9934, 0.0849, 0.0889, 0.0854, 0.0839, 1.7518,-1.5028, 0.6597
09-Sep-2020 11:12:44.669, 0.0485, 0.9907, 0.0746, 0.0802, 0.0705, 0.0620, 1.7379,-1.5020, 0.6450
09-Sep-2020 11:12:44.679, 0.0220, 0.9865, 0.0652, 0.0983, 0.1034, 0.0482, 1.7255,-1.5015, 0.6318
09-Sep-2020 11:12:44.689, 0.0219, 0.9860, 0.0489, 0.1244, 0.1410, 0.0409, 1.7116,-1.5010, 0.6169
09-Sep-2020 11:12:44.699, 0.0260, 0.9894, 0.0423, 0.1412, 0.1831, 0.0346, 1.6950,-1.5007, 0.5988
09-Sep-2020 11:12:44.709, 0.0353, 0.9869, 0.0443, 0.1500, 0.2041, 0.0379, 1.6768,-1.5004, 0.5787
09-Sep-2020 11:12:44.719, 0.0440, 0.9813, 0.0461, 0.1555, 0.2273, 0.0444, 1.6577,-1.5001, 0.5576
09-Sep-2020 11:12:44.729, 0.0469, 0.9776, 0.0444, 0.1662, 0.2520, 0.0546, 1.6383,-1.4997, 0.5359
09-Sep-2020 11:12:44.739, 0.0457, 0.9782, 0.0388, 0.1775, 0.2890, 0.0601, 1.6181,-1.4991, 0.5131
09-Sep-2020 11:12:44.749, 0.0414, 0.9766, 0.0327, 0.1967, 0.3020, 0.0664, 1.5967,-1.4985, 0.4888
09-Sep-2020 11:12:44.759, 0.0323, 0.9780, 0.0360, 0.2076, 0.2981, 0.0648, 1.5732,-1.4979, 0.4623
09-Sep-2020 11:12:44.769, 0.0251, 0.9860, 0.0406, 0.2089, 0.2962, 0.0617, 1.5485,-1.4972, 0.4344
09-Sep-2020 11:12:44.778, 0.0202, 0.9938, 0.0442, 0.1971, 0.2694, 0.0590, 1.5238,-1.4965, 0.4068
09-Sep-2020 11:12:44.788, 0.0179, 1.0003, 0.0473, 0.1736, 0.2171, 0.0583, 1.5010,-1.4958, 0.3813
09-Sep-2020 11:12:44.798, 0.0205, 0.9989, 0.0486, 0.1581, 0.1629, 0.0629, 1.4810,-1.4950, 0.3591
09-Sep-2020 11:12:44.808, 0.0223, 0.9936, 0.0504, 0.1516, 0.0994, 0.0541, 1.4631,-1.4942, 0.3395
09-Sep-2020 11:12:44.818, 0.0265, 0.9904, 0.0512, 0.1408, 0.0560, 0.0475, 1.4452,-1.4934, 0.3205
09-Sep-2020 11:12:44.828, 0.0350, 0.9907, 0.0444, 0.1197, 0.0251, 0.0385, 1.4285,-1.4927, 0.3033
09-Sep-2020 11:12:44.838, 0.0423, 0.9936, 0.0341, 0.0933, 0.0031, 0.0326, 1.4144,-1.4920, 0.2888
09-Sep-2020 11:12:44.848, 0.0446, 0.9939, 0.0194, 0.0761,-0.0073, 0.0277, 1.4032,-1.4915, 0.2777
09-Sep-2020 11:12:44.858, 0.0394, 0.9948, 0.0035, 0.0808,-0.0229, 0.0253, 1.3945,-1.4910, 0.2690
09-Sep-2020 11:12:44.868, 0.0327, 0.9937,-0.0103, 0.0952,-0.0502, 0.0251, 1.3852,-1.4906, 0.2599
09-Sep-2020 11:12:44.878, 0.0259, 0.9907,-0.0147, 0.1009,-0.1024, 0.0232, 1.3742,-1.4902, 0.2494
09-Sep-2020 11:12:44.888, 0.0215, 0.9798,-0.0137, 0.0981,-0.1626, 0.0134, 1.3620,-1.4898, 0.2381
09-Sep-2020 11:12:44.898, 0.0204, 0.9687,-0.0089, 0.0895,-0.2115, 0.0079, 1.3494,-1.4895, 0.2272
09-Sep-2020 11:12:44.908, 0.0250, 0.9659,-0.0022, 0.0785,-0.2408, 0.0036, 1.3373,-1.4892, 0.2172
09-Sep-2020 11:12:44.918, 0.0278, 0.9669,-0.0009, 0.0785,-0.2408, 0.0036, 1.3261,-1.4889, 0.2083
09-Sep-2020 11:12:44.928, 0.0306, 0.9674, 0.0001, 0.0456,-0.2190,-0.0117, 1.3161,-1.4888, 0.2007
09-Sep-2020 11:12:44.938, 0.0332, 0.9654, 0.0013, 0.0249,-0.1802,-0.0247, 1.3081,-1.4887, 0.1948
09-Sep-2020 11:12:44.947, 0.0338, 0.9622, 0.0022, 0.0131,-0.1343,-0.0338, 1.3023,-1.4889, 0.1908
09-Sep-2020 11:12:44.958, 0.0344, 0.9669,-0.0012,-0.0029,-0.1022,-0.0505, 1.2981,-1.4891, 0.1879
09-Sep-2020 11:12:44.967, 0.0339, 0.9743,-0.0020,-0.0144,-0.0646,-0.0786, 1.2953,-1.4896, 0.1862
09-Sep-2020 11:12:44.978, 0.0371, 0.9825,-0.0107,-0.0204,-0.0114,-0.1014, 1.2934,-1.4903, 0.1849
09-Sep-2020 11:12:44.987, 0.0425, 0.9898,-0.0259,-0.0313, 0.0716,-0.1256, 1.2921,-1.4914, 0.1837
09-Sep-2020 11:12:44.997, 0.0503, 0.9976,-0.0468,-0.0407, 0.1778,-0.1465, 1.2921,-1.4926, 0.1830
09-Sep-2020 11:12:45.007, 0.0599, 0.9978,-0.0703,-0.0455, 0.2723,-0.1483, 1.2935,-1.4941, 0.1827
09-Sep-2020 11:12:45.017, 0.0691, 0.9909,-0.0952,-0.0455, 0.2723,-0.1483, 1.2966,-1.4956, 0.1831
09-Sep-2020 11:12:45.027, 0.0750, 0.9874,-0.1207,-0.0344, 0.3469,-0.1538, 1.2999,-1.4971, 0.1832
09-Sep-2020 11:12:45.037, 0.0770, 0.9891,-0.1418,-0.0040, 0.3265,-0.1628, 1.3018,-1.4986, 0.1816
09-Sep-2020 11:12:45.047, 0.0744, 0.9990,-0.1573, 0.0372, 0.2887,-0.1806, 1.2992,-1.5001, 0.1757
09-Sep-2020 11:12:45.057, 0.0748, 1.0106,-0.1588, 0.0856, 0.2858,-0.1877, 1.2896,-1.5017, 0.1632
09-Sep-2020 11:12:45.067, 0.0751, 1.0215,-0.1379, 0.1231, 0.3204,-0.1854, 1.2723,-1.5032, 0.1430
09-Sep-2020 11:12:45.077, 0.0750, 1.0291,-0.1115, 0.1486, 0.3678,-0.1678, 1.2491,-1.5045, 0.1166
09-Sep-2020 11:12:45.087, 0.0732, 1.0271,-0.0853, 0.1574, 0.3996,-0.1466, 1.2225,-1.5055, 0.0862
09-Sep-2020 11:12:45.097, 0.0726, 1.0238,-0.0641, 0.1540, 0.4096,-0.1245, 1.1959,-1.5062, 0.0556
09-Sep-2020 11:12:45.107, 0.0753, 1.0184,-0.0492, 0.1359, 0.3938,-0.1013, 1.1708,-1.5067, 0.0264
09-Sep-2020 11:12:45.117, 0.0808, 1.0115,-0.0456, 0.1126, 0.3526,-0.0796, 1.1490,-1.5070, 0.0006
09-Sep-2020 11:12:45.127, 0.0848, 1.0049,-0.0503, 0.0910, 0.3024,-0.0627, 1.1312,-1.5072,-0.0207
09-Sep-2020 11:12:45.137, 0.0841, 1.0055,-0.0609, 0.0642, 0.2498,-0.0481, 1.1171,-1.5073,-0.0378
09-Sep-2020 11:12:45.147, 0.0774, 1.0121,-0.0668, 0.0375, 0.1878,-0.0402, 1.1072,-1.5074,-0.0502
09-Sep-2020 11:12:45.157, 0.0643, 1.0236,-0.0710, 0.0228, 0.1340,-0.0369, 1.1008,-1.5075,-0.0584
09-Sep-2020 11:12:45.167, 0.0497, 1.0313,-0.0723, 0.0260, 0.0867,-0.0321, 1.0961,-1.5076,-0.0645
09-Sep-2020 11:12:45.177, 0.0399, 1.0335,-0.0642, 0.0320, 0.0409,-0.0281, 1.0910,-1.5077,-0.0705
09-Sep-2020 11:12:45.187, 0.0405, 1.0261,-0.0438, 0.0219, 0.0031,-0.0157, 1.0852,-1.5077,-0.0767
09-Sep-2020 11:12:45.197, 0.0549, 1.0170,-0.0162,-0.0008,-0.0285,-0.0033, 1.0810,-1.5077,-0.0809
09-Sep-2020 11:12:45.206, 0.0809, 1.0076, 0.0078,-0.0253,-0.0512, 0.0167, 1.0807,-1.5076,-0.0809
09-Sep-2020 11:12:45.216, 0.1065, 1.0002, 0.0184,-0.0474,-0.0909, 0.0395, 1.0850,-1.5075,-0.0761
09-Sep-2020 11:12:45.226, 0.1276, 0.9968, 0.0151,-0.0603,-0.1262, 0.0682, 1.0932,-1.5073,-0.0670
09-Sep-2020 11:12:45.236, 0.1397, 0.9926, 0.0039,-0.0611,-0.1571, 0.0939, 1.1045,-1.5068,-0.0543
09-Sep-2020 11:12:45.246, 0.1387, 0.9919,-0.0092,-0.0515,-0.1697, 0.1175, 1.1173,-1.5062,-0.0400
09-Sep-2020 11:12:45.256, 0.1262, 0.9937,-0.0166,-0.0410,-0.1622, 0.1052, 1.1297,-1.5053,-0.0259
09-Sep-2020 11:12:45.266, 0.1044, 0.9958,-0.0173,-0.0374,-0.1469, 0.0815, 1.1400,-1.5044,-0.0139
09-Sep-2020 11:12:45.276, 0.0824, 0.9986,-0.0138,-0.0268,-0.1277, 0.0565, 1.1483,-1.5038,-0.0041
09-Sep-2020 11:12:45.286, 0.0638, 1.0022,-0.0072,-0.0169,-0.1103, 0.0334, 1.1543,-1.5033, 0.0032
09-Sep-2020 11:12:45.296, 0.0493, 1.0045, 0.0035, 0.0022,-0.0912, 0.0069, 1.1579,-1.5030, 0.0079
09-Sep-2020 11:12:45.306, 0.0383, 1.0070, 0.0130, 0.0195,-0.0749,-0.0128, 1.1579,-1.5028, 0.0088
09-Sep-2020 11:12:45.316, 0.0327, 1.0075, 0.0254, 0.0333,-0.0701,-0.0379, 1.1544,-1.5027, 0.0061
09-Sep-2020 11:12:45.326, 0.0282, 1.0031, 0.0370, 0.0299,-0.0879,-0.0621, 1.1478,-1.5028, 0.0002
09-Sep-2020 11:12:45.336, 0.0297, 0.9984, 0.0398, 0.0299,-0.0879,-0.0621, 1.1399,-1.5031,-0.0069
09-Sep-2020 11:12:45.346, 0.0370, 0.9913, 0.0405, 0.0170,-0.1556,-0.1052, 1.1310,-1.5036,-0.0145
09-Sep-2020 11:12:45.356, 0.0485, 0.9836, 0.0381, 0.0168,-0.1729,-0.1283, 1.1207,-1.5044,-0.0233
09-Sep-2020 11:12:45.366, 0.0612, 0.9756, 0.0358, 0.0151,-0.1648,-0.1432, 1.1085,-1.5054,-0.0338
09-Sep-2020 11:12:45.376, 0.0694, 0.9727, 0.0342, 0.0211,-0.1361,-0.1540, 1.0949,-1.5065,-0.0458
09-Sep-2020 11:12:45.386, 0.0703, 0.9817, 0.0305, 0.0170,-0.0940,-0.1655, 1.0799,-1.5077,-0.0595
09-Sep-2020 11:12:45.396, 0.0699, 0.9980, 0.0330, 0.0090,-0.0447,-0.1730, 1.0644,-1.5091,-0.0741
09-Sep-2020 11:12:45.406, 0.0679, 1.0140, 0.0372,-0.0044, 0.0008,-0.1760, 1.0495,-1.5105,-0.0885
09-Sep-2020 11:12:45.416, 0.0658, 1.0275, 0.0327,-0.0232, 0.0259,-0.1743, 1.0363,-1.5120,-0.1018
09-Sep-2020 11:12:45.425, 0.0650, 1.0374, 0.0174,-0.0388, 0.0219,-0.1670, 1.0256,-1.5136,-0.1128
09-Sep-2020 11:12:45.435, 0.0733, 1.0396,-0.0086,-0.0422,-0.0129,-0.1501, 1.0172,-1.5151,-0.1213
09-Sep-2020 11:12:45.445, 0.0862, 1.0383,-0.0449,-0.0355,-0.0704,-0.1211, 1.0104,-1.5166,-0.1280
09-Sep-2020 11:12:45.455, 0.0999, 1.0292,-0.0793,-0.0289,-0.1368,-0.0884, 1.0046,-1.5177,-0.1331
09-Sep-2020 11:12:45.465, 0.1162, 1.0166,-0.1169,-0.0114,-0.1924,-0.0381, 1.0000,-1.5185,-0.1363
09-Sep-2020 11:12:45.475, 0.1248, 1.0113,-0.1442, 0.0093,-0.2240, 0.0131, 0.9973,-1.5188,-0.1371
09-Sep-2020 11:12:45.485, 0.1270, 1.0141,-0.1621, 0.0093,-0.2240, 0.0131, 0.9966,-1.5186,-0.1356
09-Sep-2020 11:12:45.495, 0.1184, 1.0157,-0.1708, 0.0485,-0.2243, 0.0934, 0.9974,-1.5179,-0.1325
09-Sep-2020 11:12:45.505, 0.1033, 1.0056,-0.1722, 0.0818,-0.2164, 0.1221, 0.9976,-1.5168,-0.1301
09-Sep-2020 11:12:45.515, 0.0809, 0.9874,-0.1662, 0.1335,-0.1975, 0.1476, 0.9953,-1.5152,-0.1302
09-Sep-2020 11:12:45.525, 0.0507, 0.9735,-0.1520, 0.1956,-0.1790, 0.1472, 0.9880,-1.5132,-0.1356
09-Sep-2020 11:12:45.535, 0.0102, 0.9698,-0.1268, 0.2595,-0.1362, 0.1105, 0.9724,-1.5108,-0.1494
09-Sep-2020 11:12:45.545,-0.0267, 0.9680,-0.0939, 0.3118,-0.0822, 0.0686, 0.9469,-1.5083,-0.1736
09-Sep-2020 11:12:45.555,-0.0529, 0.9674,-0.0545, 0.3320,-0.0273, 0.0406, 0.9115,-1.5052,-0.2082
09-Sep-2020 11:12:45.564,-0.0727, 0.9709,-0.0137, 0.3114, 0.0017, 0.0154, 0.8731,-1.5020,-0.2464
09-Sep-2020 11:12:45.575,-0.0900, 0.9780, 0.0226, 0.2577, 0.0215,-0.0094, 0.8372,-1.4989,-0.2823
09-Sep-2020 11:12:45.585,-0.1037, 0.9868, 0.0505, 0.1870, 0.0076,-0.0340, 0.8065,-1.4963,-0.3133
09-Sep-2020 11:12:45.595,-0.1041, 1.0006, 0.0682, 0.1126,-0.0698,-0.0579, 0.7813,-1.4945,-0.3385
09-Sep-2020 11:12:45.604,-0.0847, 1.0201, 0.0624, 0.0406,-0.1866,-0.0714, 0.7617,-1.4936,-0.3574
09-Sep-2020 11:12:45.614,-0.0586, 1.0374, 0.0434,-0.0029,-0.3123,-0.0788, 0.7490,-1.4937,-0.3683
09-Sep-2020 11:12:45.625,-0.0357, 1.0356, 0.0121,-0.0404,-0.4276,-0.0873, 0.7383,-1.4941,-0.3760
09-Sep-2020 11:12:45.635,-0.0053, 1.0138,-0.0277,-0.0617,-0.5341,-0.0787, 0.7295,-1.4949,-0.3804
09-Sep-2020 11:12:45.645, 0.0296, 0.9946,-0.0664,-0.0654,-0.5877,-0.0650, 0.7224,-1.4958,-0.3823
09-Sep-2020 11:12:45.654, 0.0478, 0.9840,-0.0843,-0.0632,-0.5711,-0.0573, 0.7162,-1.4967,-0.3826
09-Sep-2020 11:12:45.665, 0.0601, 0.9699,-0.0827,-0.0526,-0.4971,-0.0535, 0.7106,-1.4975,-0.3826
09-Sep-2020 11:12:45.674, 0.0655, 0.9649,-0.0692,-0.0526,-0.4971,-0.0535, 0.7051,-1.4981,-0.3832
09-Sep-2020 11:12:45.684, 0.0674, 0.9706,-0.0516,-0.0120,-0.2492,-0.0717, 0.6984,-1.4987,-0.3862
09-Sep-2020 11:12:45.694, 0.0702, 0.9884,-0.0372, 0.0086,-0.1804,-0.0954, 0.6895,-1.4992,-0.3925
09-Sep-2020 11:12:45.704, 0.0812, 1.0070,-0.0339, 0.0181,-0.1709,-0.1054, 0.6772,-1.4996,-0.4030
09-Sep-2020 11:12:45.715, 0.0910, 1.0144,-0.0328,-0.0015,-0.2215,-0.1048, 0.6632,-1.5001,-0.4153
09-Sep-2020 11:12:45.724, 0.0924, 1.0010,-0.0312,-0.0439,-0.2837,-0.0882, 0.6503,-1.5007,-0.4260
09-Sep-2020 11:12:45.734, 0.0800, 0.9879,-0.0379,-0.0789,-0.3334,-0.0726, 0.6416,-1.5015,-0.4319
09-Sep-2020 11:12:45.744, 0.0650, 0.9874,-0.0412,-0.0957,-0.3369,-0.0693, 0.6369,-1.5025,-0.4332
09-Sep-2020 11:12:45.754, 0.0526, 0.9883,-0.0366,-0.0958,-0.2846,-0.0739, 0.6342,-1.5036,-0.4326
09-Sep-2020 11:12:45.764, 0.0438, 0.9894,-0.0300,-0.0862,-0.1993,-0.0859, 0.6313,-1.5047,-0.4326
09-Sep-2020 11:12:45.774, 0.0395, 0.9938,-0.0271,-0.0753,-0.1078,-0.0962, 0.6270,-1.5058,-0.4350
09-Sep-2020 11:12:45.784, 0.0399, 1.0016,-0.0300,-0.0761,-0.0399,-0.1021, 0.6214,-1.5069,-0.4395
09-Sep-2020 11:12:45.794, 0.0390, 1.0116,-0.0410,-0.0789,-0.0087,-0.1012, 0.6155,-1.5080,-0.4450
09-Sep-2020 11:12:45.804, 0.0388, 1.0206,-0.0537,-0.0801, 0.0145,-0.0983, 0.6101,-1.5092,-0.4503
09-Sep-2020 11:12:45.814, 0.0354, 1.0216,-0.0570,-0.0812, 0.0325,-0.0974, 0.6051,-1.5103,-0.4554
09-Sep-2020 11:12:45.824, 0.0370, 1.0088,-0.0547,-0.0753, 0.0670,-0.0881, 0.6005,-1.5115,-0.4604
09-Sep-2020 11:12:45.834, 0.0362, 0.9928,-0.0477,-0.0608, 0.1138,-0.0827, 0.5969,-1.5125,-0.4646
09-Sep-2020 11:12:45.844, 0.0352, 0.9809,-0.0427,-0.0427, 0.1496,-0.0790, 0.5929,-1.5134,-0.4697
09-Sep-2020 11:12:45.854, 0.0338, 0.9725,-0.0440,-0.0250, 0.1683,-0.0741, 0.5882,-1.5141,-0.4759
09-Sep-2020 11:12:45.863, 0.0285, 0.9666,-0.0479,-0.0099, 0.1498,-0.0762, 0.5823,-1.5147,-0.4835
09-Sep-2020 11:12:45.873, 0.0290, 0.9648,-0.0489,-0.0014, 0.1249,-0.0740, 0.5744,-1.5151,-0.4929
09-Sep-2020 11:12:45.883, 0.0254, 0.9629,-0.0461, 0.0114, 0.1059,-0.0692, 0.5653,-1.5154,-0.5032
09-Sep-2020 11:12:45.893, 0.0153, 0.9703,-0.0392, 0.0144, 0.1042,-0.0736, 0.5554,-1.5156,-0.5142
09-Sep-2020 11:12:45.903, 0.0078, 0.9807,-0.0319, 0.0170, 0.1166,-0.0753, 0.5445,-1.5158,-0.5262
09-Sep-2020 11:12:45.913, 0.0070, 0.9899,-0.0259, 0.0142, 0.1357,-0.0752, 0.5334,-1.5160,-0.5384
09-Sep-2020 11:12:45.923, 0.0064, 0.9955,-0.0260, 0.0040, 0.1398,-0.0757, 0.5228,-1.5161,-0.5504
09-Sep-2020 11:12:45.933, 0.0083, 0.9962,-0.0310,-0.0093, 0.1550,-0.0748, 0.5126,-1.5164,-0.5620
09-Sep-2020 11:12:45.943, 0.0106, 0.9924,-0.0347,-0.0191, 0.1581,-0.0701, 0.5036,-1.5168,-0.5725
09-Sep-2020 11:12:45.953, 0.0126, 0.9909,-0.0384,-0.0224, 0.1733,-0.0670, 0.4962,-1.5172,-0.5815
09-Sep-2020 11:12:45.963, 0.0116, 0.9933,-0.0367,-0.0225, 0.1952,-0.0657, 0.4897,-1.5177,-0.5897
09-Sep-2020 11:12:45.973, 0.0094, 0.9986,-0.0318,-0.0128, 0.2249,-0.0715, 0.4833,-1.5181,-0.5981
09-Sep-2020 11:12:45.983, 0.0063, 1.0050,-0.0256,-0.0025, 0.2544,-0.0695, 0.4754,-1.5185,-0.6082
09-Sep-2020 11:12:45.993, 0.0081, 1.0074,-0.0247, 0.0066, 0.2690,-0.0632, 0.4669,-1.5188,-0.6192
09-Sep-2020 11:12:46.003, 0.0086, 1.0054,-0.0263, 0.0073, 0.2599,-0.0480, 0.4592,-1.5189,-0.6296
09-Sep-2020 11:12:46.013, 0.0092, 1.0008,-0.0294, 0.0028, 0.2392,-0.0343, 0.4537,-1.5190,-0.6377
09-Sep-2020 11:12:46.023, 0.0086, 0.9950,-0.0273,-0.0108, 0.2102,-0.0209, 0.4508,-1.5191,-0.6430
09-Sep-2020 11:12:46.033, 0.0029, 0.9930,-0.0234,-0.0228, 0.1880,-0.0097, 0.4510,-1.5192,-0.6449
09-Sep-2020 11:12:46.043,-0.0089, 0.9954,-0.0170,-0.0291, 0.1693,-0.0054, 0.4536,-1.5194,-0.6441
09-Sep-2020 11:12:46.053,-0.0188, 1.0008,-0.0147,-0.0279, 0.1486,-0.0034, 0.4574,-1.5197,-0.6419
09-Sep-2020 11:12:46.067,-0.0216, 1.0089,-0.0164,-0.0274, 0.1307, 0.0036, 0.4615,-1.5199,-0.6393
09-Sep-2020 11:12:46.072,-0.0192, 1.0129,-0.0217,-0.0199, 0.1181, 0.0070, 0.4665,-1.5201,-0.6356
09-Sep-2020 11:12:46.082,-0.0192, 1.0094,-0.0261,-0.0098, 0.1104, 0.0063, 0.4714,-1.5202,-0.6319
09-Sep-2020 11:12:46.092,-0.0170, 0.9992,-0.0274, 0.0011, 0.1036, 0.0082, 0.4752,-1.5202,-0.6292
09-Sep-2020 11:12:46.102,-0.0121, 0.9904,-0.0184,-0.0033, 0.1095, 0.0155, 0.4784,-1.5201,-0.6270
09-Sep-2020 11:12:46.112, 0.0004, 0.9905, 0.0010,-0.0172, 0.1095, 0.0294, 0.4833,-1.5200,-0.6232
09-Sep-2020 11:12:46.122, 0.0167, 0.9993, 0.0160,-0.0460, 0.0670, 0.0387, 0.4917,-1.5200,-0.6158
09-Sep-2020 11:12:46.132, 0.0272, 1.0003, 0.0146,-0.0816, 0.0014, 0.0478, 0.5041,-1.5202,-0.6040
09-Sep-2020 11:12:46.142, 0.0290, 0.9984, 0.0025,-0.1003,-0.0328, 0.0573, 0.5209,-1.5206,-0.5873
09-Sep-2020 11:12:46.152, 0.0234, 0.9973,-0.0100,-0.0934,-0.0255, 0.0565, 0.5406,-1.5212,-0.5672
09-Sep-2020 11:12:46.162, 0.0184, 0.9992,-0.0235,-0.0731, 0.0240, 0.0542, 0.5601,-1.5216,-0.5474
09-Sep-2020 11:12:46.172, 0.0157, 0.9959,-0.0331,-0.0514, 0.0782, 0.0459, 0.5776,-1.5219,-0.5302
09-Sep-2020 11:12:46.182, 0.0178, 0.9889,-0.0389,-0.0312, 0.1246, 0.0439, 0.5922,-1.5221,-0.5163
09-Sep-2020 11:12:46.192, 0.0214, 0.9843,-0.0384,-0.0164, 0.1485, 0.0427, 0.6049,-1.5220,-0.5048
09-Sep-2020 11:12:46.201, 0.0258, 0.9809,-0.0300,-0.0103, 0.1429, 0.0452, 0.6163,-1.5219,-0.4949
09-Sep-2020 11:12:46.211, 0.0353, 0.9801,-0.0148,-0.0108, 0.1324, 0.0573, 0.6277,-1.5217,-0.4849
09-Sep-2020 11:12:46.222, 0.0488, 0.9828, 0.0016,-0.0215, 0.0966, 0.0736, 0.6411,-1.5214,-0.4727
09-Sep-2020 11:12:46.231, 0.0608, 0.9908, 0.0127,-0.0409, 0.0490, 0.0950, 0.6576,-1.5211,-0.4572
09-Sep-2020 11:12:46.241, 0.0658, 1.0049, 0.0140,-0.0554, 0.0063, 0.1169, 0.6786,-1.5208,-0.4366
09-Sep-2020 11:12:46.251, 0.0538, 1.0215, 0.0045,-0.0641,-0.0145, 0.1216, 0.7038,-1.5204,-0.4114
09-Sep-2020 11:12:46.261, 0.0264, 1.0296,-0.0152,-0.0521,-0.0143, 0.1040, 0.7298,-1.5201,-0.3852
09-Sep-2020 11:12:46.271,-0.0013, 1.0265,-0.0381,-0.0295, 0.0028, 0.0928, 0.7519,-1.5197,-0.3630
09-Sep-2020 11:12:46.282,-0.0187, 1.0139,-0.0521,-0.0028, 0.0325, 0.0920, 0.7694,-1.5192,-0.3455
09-Sep-2020 11:12:46.291,-0.0256, 0.9938,-0.0574, 0.0139, 0.0500, 0.1054, 0.7836,-1.5185,-0.3316
09-Sep-2020 11:12:46.301,-0.0188, 0.9735,-0.0502, 0.0146, 0.0394, 0.1197, 0.7973,-1.5176,-0.3183
09-Sep-2020 11:12:46.311,-0.0083, 0.9627,-0.0313,-0.0007,-0.0026, 0.1192, 0.8122,-1.5166,-0.3037
09-Sep-2020 11:12:46.321, 0.0052, 0.9621, 0.0027,-0.0325,-0.0683, 0.1050, 0.8284,-1.5157,-0.2875
09-Sep-2020 11:12:46.332, 0.0236, 0.9674, 0.0363,-0.0793,-0.1577, 0.1021, 0.8461,-1.5150,-0.2691
09-Sep-2020 11:12:46.341, 0.0425, 0.9803, 0.0553,-0.1189,-0.2464, 0.1106, 0.8677,-1.5147,-0.2458
09-Sep-2020 11:12:46.351, 0.0566, 0.9975, 0.0503,-0.1352,-0.2978, 0.1264, 0.8939,-1.5146,-0.2172
09-Sep-2020 11:12:46.361, 0.0589, 1.0119, 0.0221,-0.1360,-0.3121, 0.1447, 0.9228,-1.5144,-0.1852
09-Sep-2020 11:12:46.371, 0.0549, 1.0225,-0.0120,-0.1382,-0.2873, 0.1572, 0.9529,-1.5140,-0.1520
09-Sep-2020 11:12:46.381, 0.0463, 1.0281,-0.0429,-0.1348,-0.2508, 0.1600, 0.9841,-1.5134,-0.1179
09-Sep-2020 11:12:46.391, 0.0373, 1.0242,-0.0622,-0.1338,-0.2035, 0.1540, 1.0154,-1.5128,-0.0840
09-Sep-2020 11:12:46.401, 0.0286, 1.0154,-0.0754,-0.1173,-0.1601, 0.1366, 1.0460,-1.5121,-0.0513
09-Sep-2020 11:12:46.411, 0.0195, 1.0033,-0.0865,-0.0876,-0.1256, 0.1155, 1.0732,-1.5115,-0.0224
09-Sep-2020 11:12:46.421, 0.0105, 0.9877,-0.0907,-0.0304,-0.0899, 0.0942, 1.0946,-1.5108, 0.0003
09-Sep-2020 11:12:46.431, 0.0037, 0.9737,-0.0851, 0.0353,-0.0532, 0.0736, 1.1063,-1.5101, 0.0129
09-Sep-2020 11:12:46.441, 0.0017, 0.9627,-0.0709, 0.0963,-0.0202, 0.0565, 1.1068,-1.5092, 0.0139
09-Sep-2020 11:12:46.452, 0.0004, 0.9614,-0.0446, 0.1301, 0.0107, 0.0444, 1.0975,-1.5082, 0.0049
09-Sep-2020 11:12:46.461, 0.0044, 0.9695,-0.0072, 0.1280, 0.0503, 0.0325, 1.0830,-1.5072,-0.0098
09-Sep-2020 11:12:46.470, 0.0083, 0.9820, 0.0287, 0.0974, 0.0798, 0.0224, 1.0684,-1.5062,-0.0250
09-Sep-2020 11:12:46.481, 0.0146, 0.9984, 0.0537, 0.0472, 0.0707, 0.0116, 1.0574,-1.5055,-0.0367
09-Sep-2020 11:12:46.490, 0.0237, 1.0100, 0.0617, 0.0004, 0.0251, 0.0068, 1.0518,-1.5050,-0.0429
09-Sep-2020 11:12:46.500, 0.0310, 1.0104, 0.0500, 0.0004, 0.0251, 0.0068, 1.0514,-1.5049,-0.0436
09-Sep-2020 11:12:46.510, 0.0364, 1.0014, 0.0289,-0.0639,-0.1277,-0.0033, 1.0550,-1.5050,-0.0394
09-Sep-2020 11:12:46.521, 0.0356, 0.9925, 0.0029,-0.0732,-0.1785,-0.0009, 1.0607,-1.5053,-0.0324
09-Sep-2020 11:12:46.530, 0.0350, 0.9880,-0.0199,-0.0697,-0.2160,-0.0010, 1.0674,-1.5056,-0.0239
09-Sep-2020 11:12:46.540, 0.0426, 0.9884,-0.0332,-0.0706,-0.2343, 0.0014, 1.0743,-1.5059,-0.0149
09-Sep-2020 11:12:46.550, 0.0602, 0.9906,-0.0345,-0.0706,-0.2343, 0.0014, 1.0821,-1.5062,-0.0048
09-Sep-2020 11:12:46.560, 0.0789, 0.9916,-0.0289,-0.0735,-0.1547, 0.0189, 1.0918,-1.5065, 0.0071
09-Sep-2020 11:12:46.570, 0.0944, 0.9957,-0.0244,-0.0604,-0.0617, 0.0228, 1.1025,-1.5066, 0.0194
09-Sep-2020 11:12:46.580, 0.1064, 1.0039,-0.0251,-0.0335, 0.0308, 0.0084, 1.1125,-1.5067, 0.0300
09-Sep-2020 11:12:46.590, 0.1129, 1.0111,-0.0328,-0.0004, 0.1065,-0.0020, 1.1188,-1.5067, 0.0361
09-Sep-2020 11:12:46.600, 0.1237, 1.0099,-0.0399,-0.0004, 0.1065,-0.0020, 1.1202,-1.5067, 0.0364
09-Sep-2020 11:12:46.610, 0.1281, 1.0025,-0.0399, 0.0664, 0.2012,-0.0267, 1.1163,-1.5066, 0.0308
09-Sep-2020 11:12:46.620, 0.1291, 0.9971,-0.0351, 0.1068, 0.2102,-0.0335, 1.1070,-1.5065, 0.0195
09-Sep-2020 11:12:46.630, 0.1247, 0.9905,-0.0204, 0.1425, 0.2023,-0.0286, 1.0920,-1.5062, 0.0024
09-Sep-2020 11:12:46.639, 0.1093, 0.9777, 0.0037, 0.1596, 0.1711,-0.0157, 1.0728,-1.5057,-0.0188
09-Sep-2020 11:12:46.650, 0.0949, 0.9701, 0.0304, 0.1326, 0.1038, 0.0023, 1.0528,-1.5050,-0.0405
09-Sep-2020 11:12:46.660, 0.1028, 0.9754, 0.0551, 0.0813, 0.0083, 0.0304, 1.0374,-1.5042,-0.0569
09-Sep-2020 11:12:46.670, 0.1306, 0.9947, 0.0727, 0.0162,-0.0857, 0.0618, 1.0301,-1.5034,-0.0643
09-Sep-2020 11:12:46.679, 0.1588, 1.0156, 0.0725,-0.0604,-0.1777, 0.0985, 1.0323,-1.5026,-0.0612
09-Sep-2020 11:12:46.690, 0.1731, 1.0283, 0.0464,-0.1233,-0.2563, 0.1209, 1.0454,-1.5019,-0.0464
09-Sep-2020 11:12:46.700, 0.1736, 1.0336, 0.0041,-0.1445,-0.2891, 0.1511, 1.0668,-1.5014,-0.0223
09-Sep-2020 11:12:46.709, 0.1604, 1.0316,-0.0418,-0.1225,-0.2648, 0.1716, 1.0922,-1.5006, 0.0059
09-Sep-2020 11:12:46.719, 0.1378, 1.0175,-0.0748,-0.0404,-0.2184, 0.1767, 1.1156,-1.4995, 0.0321
09-Sep-2020 11:12:46.729, 0.1137, 0.9926,-0.0854, 0.0592,-0.1838, 0.1567, 1.1294,-1.4980, 0.0481
09-Sep-2020 11:12:46.739, 0.0942, 0.9557,-0.0677, 0.1098,-0.1583, 0.1263, 1.1306,-1.4963, 0.0512
09-Sep-2020 11:12:46.749, 0.0868, 0.9163,-0.0323, 0.0521,-0.1389, 0.0945, 1.1252,-1.4946, 0.0473
09-Sep-2020 11:12:46.759, 0.0886, 0.8908,-0.0070,-0.0734,-0.1058, 0.0555, 1.1324,-1.4933, 0.0559
09-Sep-2020 11:12:46.769, 0.0839, 0.9043,-0.0229,-0.1463,-0.0168,-0.0090, 1.1508,-1.4928, 0.0753
09-Sep-2020 11:12:46.779, 0.0768, 0.9473,-0.0567,-0.1030, 0.1750,-0.0894, 1.1697,-1.4932, 0.0944
09-Sep-2020 11:12:46.789, 0.0725, 0.9980,-0.0843, 0.0155, 0.3927,-0.1556, 1.1790,-1.4942, 0.1019
09-Sep-2020 11:12:46.799, 0.0724, 1.0257,-0.1035, 0.1101, 0.5264,-0.2026, 1.1734,-1.4955, 0.0924
09-Sep-2020 11:12:46.809, 0.0769, 1.0048,-0.1041, 0.1528, 0.6029,-0.2292, 1.1545,-1.4967, 0.0683
09-Sep-2020 11:12:46.819, 0.0786, 0.9765,-0.0852, 0.1767, 0.6725,-0.2485, 1.1285,-1.4980, 0.0362
09-Sep-2020 11:12:46.829, 0.0771, 0.9645,-0.0587, 0.1973, 0.7465,-0.2722, 1.0983,-1.4994,-0.0008
09-Sep-2020 11:12:46.839, 0.0747, 0.9672,-0.0334, 0.1922, 0.7979,-0.2999, 1.0635,-1.5008,-0.0431
09-Sep-2020 11:12:46.849, 0.0783, 0.9840,-0.0188, 0.1648, 0.8097,-0.3220, 1.0261,-1.5023,-0.0884
09-Sep-2020 11:12:46.859, 0.0913, 1.0038,-0.0135, 0.1367, 0.7720,-0.3255, 0.9885,-1.5040,-0.1342
09-Sep-2020 11:12:46.869, 0.1110, 1.0220,-0.0193, 0.1141, 0.6729,-0.3070, 0.9516,-1.5059,-0.1788
09-Sep-2020 11:12:46.879, 0.1276, 1.0317,-0.0235, 0.0935, 0.5444,-0.2796, 0.9158,-1.5075,-0.2214
09-Sep-2020 11:12:46.888, 0.1442, 1.0295,-0.0145, 0.0446, 0.3870,-0.2408, 0.8823,-1.5091,-0.2603
09-Sep-2020 11:12:46.899, 0.1669, 1.0158,-0.0025,-0.0263, 0.2322,-0.1771, 0.8557,-1.5105,-0.2909
09-Sep-2020 11:12:46.908, 0.1996, 0.9975, 0.0169,-0.1156, 0.1171,-0.0778, 0.8424,-1.5119,-0.3065
09-Sep-2020 11:12:46.918, 0.2321, 0.9921, 0.0329,-0.2116, 0.0400, 0.0414, 0.8503,-1.5132,-0.2998
09-Sep-2020 11:12:46.928, 0.2602, 0.9982, 0.0385,-0.2933,-0.0347, 0.1673, 0.8837,-1.5142,-0.2667
09-Sep-2020 11:12:46.938, 0.2766, 1.0050, 0.0428,-0.3465,-0.1100, 0.2837, 0.9421,-1.5146,-0.2078
09-Sep-2020 11:12:46.949, 0.2751, 1.0120, 0.0594,-0.3902,-0.2137, 0.3811, 1.0195,-1.5141,-0.1292
09-Sep-2020 11:12:46.958, 0.2578, 1.0183, 0.0899,-0.4549,-0.3495, 0.4518, 1.1086,-1.5126,-0.0378
09-Sep-2020 11:12:46.968, 0.2176, 1.0215, 0.1272,-0.5563,-0.5364, 0.5017, 1.2057,-1.5102, 0.0630
09-Sep-2020 11:12:46.978, 0.1748, 1.0149, 0.1510,-0.6610,-0.8314, 0.5438, 1.3097,-1.5071, 0.1727
09-Sep-2020 11:12:46.988, 0.1238, 1.0009, 0.1335,-0.7283,-1.1693, 0.5587, 1.4155,-1.5031, 0.2870
09-Sep-2020 11:12:46.998, 0.0694, 0.9826, 0.1120,-0.7521,-1.4608, 0.5587, 1.5142,-1.4982, 0.3976
09-Sep-2020 11:12:47.008, 0.0192, 0.9524, 0.0689,-0.6653,-1.6311, 0.5244, 1.5986,-1.4927, 0.4967
09-Sep-2020 11:12:47.018,-0.0347, 0.9245,-0.0082,-0.4511,-1.6339, 0.4717, 1.6587,-1.4871, 0.5732
09-Sep-2020 11:12:47.028,-0.0834, 0.8987,-0.0685,-0.2005,-1.5304, 0.4184, 1.6877,-1.4819, 0.6186
09-Sep-2020 11:12:47.038,-0.1162, 0.8861,-0.0926,-0.0048,-1.4492, 0.3467, 1.6888,-1.4775, 0.6350
09-Sep-2020 11:12:47.048,-0.1300, 0.9010,-0.0745, 0.1234,-1.4369, 0.2804, 1.6708,-1.4740, 0.6315
09-Sep-2020 11:12:47.058,-0.1159, 0.9624,-0.0423, 0.2118,-1.4391, 0.2511, 1.6415,-1.4712, 0.6164
09-Sep-2020 11:12:47.068,-0.0613, 1.0766, 0.0069, 0.3105,-1.4393, 0.2215, 1.6046,-1.4688, 0.5938
09-Sep-2020 11:12:47.077,-0.0092, 1.2104, 0.0582, 0.4633,-1.3990, 0.1980, 1.5595,-1.4665, 0.5628
09-Sep-2020 11:12:47.087, 0.0934, 1.3243, 0.1118, 0.5283,-1.4207, 0.2330, 1.5030,-1.4643, 0.5200
09-Sep-2020 11:12:47.097, 0.2764, 1.3555, 0.1705, 0.3973,-1.6321, 0.5842, 1.4436,-1.4612, 0.4746
09-Sep-2020 11:12:47.108, 0.6056, 1.2950, 0.2083, 0.1201,-2.0585, 1.2517, 1.4013,-1.4546, 0.4486
09-Sep-2020 11:12:47.118, 0.8600, 1.1913, 0.1915,-0.0397,-2.5408, 2.1081, 1.3884,-1.4419, 0.4564
09-Sep-2020 11:12:47.127, 0.9475, 1.1201, 0.0913, 0.0231,-2.6829, 2.7787, 1.3917,-1.4213, 0.4850
09-Sep-2020 11:12:47.137, 0.7385, 1.1076, 0.0738, 0.0925,-2.3466, 2.9821, 1.3933,-1.3943, 0.5134
09-Sep-2020 11:12:47.147, 0.4198, 1.1258, 0.1055, 0.0592,-1.8309, 2.7465, 1.3926,-1.3651, 0.5363
09-Sep-2020 11:12:47.157, 0.2056, 1.1069, 0.1205,-0.0226,-1.2476, 2.2622, 1.3934,-1.3382, 0.5557
09-Sep-2020 11:12:47.167, 0.0910, 1.0207, 0.1295,-0.1297,-0.7103, 1.6824, 1.3976,-1.3161, 0.5729
09-Sep-2020 11:12:47.177, 0.0374, 0.8973, 0.0701,-0.1630,-0.2376, 1.1745, 1.4054,-1.2997, 0.5884
09-Sep-2020 11:12:47.187, 0.0745, 0.7747,-0.0069,-0.1206, 0.2194, 0.8361, 1.4151,-1.2882, 0.6009
09-Sep-2020 11:12:47.197, 0.1631, 0.6932,-0.0850,-0.0212, 0.5152, 0.6724, 1.4253,-1.2800, 0.6094
09-Sep-2020 11:12:47.207, 0.2581, 0.6640,-0.1706, 0.0743, 0.5651, 0.6650, 1.4341,-1.2732, 0.6134
09-Sep-2020 11:12:47.217, 0.3482, 0.6651,-0.2079, 0.1076, 0.3894, 0.7421, 1.4401,-1.2664, 0.6139
09-Sep-2020 11:12:47.227, 0.3985, 0.6868,-0.2084, 0.0829, 0.0746, 0.8501, 1.4435,-1.2589, 0.6136
09-Sep-2020 11:12:47.237, 0.4192, 0.7134,-0.1826, 0.0156,-0.2041, 0.9417, 1.4450,-1.2503, 0.6144
09-Sep-2020 11:12:47.247, 0.4020, 0.7600,-0.1329,-0.0527,-0.3453, 0.9472, 1.4460,-1.2410, 0.6174
09-Sep-2020 11:12:47.257, 0.3565, 0.7957,-0.0755,-0.1113,-0.3239, 0.8693, 1.4474,-1.2317, 0.6225
09-Sep-2020 11:12:47.267, 0.3281, 0.8099, 0.0001,-0.1551,-0.1274, 0.7372, 1.4502,-1.2232, 0.6288
09-Sep-2020 11:12:47.276, 0.3106, 0.8090, 0.0785,-0.1849, 0.1500, 0.5714, 1.4554,-1.2160, 0.6356
09-Sep-2020 11:12:47.287, 0.2936, 0.7917, 0.1367,-0.2355, 0.4017, 0.4540, 1.4634,-1.2104, 0.6426
09-Sep-2020 11:12:47.296, 0.2870, 0.7753, 0.1673,-0.3119, 0.5463, 0.3792, 1.4747,-1.2061, 0.6504
09-Sep-2020 11:12:47.306, 0.2649, 0.7758, 0.1532,-0.3663, 0.5758, 0.3038, 1.4888,-1.2025, 0.6599
09-Sep-2020 11:12:47.316, 0.2522, 0.7726, 0.1012,-0.3646, 0.4995, 0.2298, 1.5042,-1.1997, 0.6703
09-Sep-2020 11:12:47.327, 0.2697, 0.7645, 0.0297,-0.3133, 0.3609, 0.1745, 1.5186,-1.1976, 0.6805
09-Sep-2020 11:12:47.336, 0.3115, 0.7553,-0.0327,-0.2188, 0.1754, 0.1502, 1.5301,-1.1959, 0.6891
09-Sep-2020 11:12:47.346, 0.3502, 0.7449,-0.0843,-0.0967, 0.0061, 0.1798, 1.5374,-1.1943, 0.6950
09-Sep-2020 11:12:47.356, 0.4039, 0.7525,-0.1075, 0.0073,-0.1296, 0.1979, 1.5400,-1.1925, 0.6977
09-Sep-2020 11:12:47.366, 0.4179, 0.7633,-0.1362, 0.0523,-0.2951, 0.1993, 1.5386,-1.1905, 0.6977
09-Sep-2020 11:12:47.376, 0.4339, 0.7688,-0.1405, 0.0636,-0.4237, 0.1763, 1.5346,-1.1884, 0.6964
09-Sep-2020 11:12:47.386, 0.4539, 0.7776,-0.1141, 0.0793,-0.4978, 0.1350, 1.5289,-1.1866, 0.6948
09-Sep-2020 11:12:47.396, 0.4833, 0.7895,-0.0610, 0.1037,-0.5464, 0.0926, 1.5220,-1.1852, 0.6927
09-Sep-2020 11:12:47.406, 0.5321, 0.8047, 0.0019, 0.1193,-0.5870, 0.0870, 1.5141,-1.1841, 0.6901
09-Sep-2020 11:12:47.416, 0.5860, 0.8188, 0.0533, 0.1245,-0.6240, 0.1069, 1.5055,-1.1830, 0.6871
09-Sep-2020 11:12:47.426, 0.6409, 0.8432, 0.0847, 0.1297,-0.6140, 0.1398, 1.4964,-1.1818, 0.6839
09-Sep-2020 11:12:47.436, 0.6797, 0.8689, 0.0847, 0.1271,-0.4997, 0.1831, 1.4874,-1.1803, 0.6808
09-Sep-2020 11:12:47.446, 0.6893, 0.8926, 0.0740, 0.0909,-0.2680, 0.2237, 1.4798,-1.1783, 0.6779
09-Sep-2020 11:12:47.456, 0.6940, 0.9069, 0.0596, 0.0094,-0.0372, 0.2513, 1.4755,-1.1759, 0.6761
09-Sep-2020 11:12:47.466, 0.6910, 0.9137, 0.0502,-0.0730, 0.1335, 0.2702, 1.4754,-1.1734, 0.6764
09-Sep-2020 11:12:47.475, 0.6923, 0.9042, 0.0440,-0.0958, 0.2059, 0.2871, 1.4788,-1.1707, 0.6787
09-Sep-2020 11:12:47.485, 0.6893, 0.9016, 0.0457,-0.0575, 0.1693, 0.2970, 1.4834,-1.1679, 0.6816
09-Sep-2020 11:12:47.495, 0.6896, 0.9003, 0.0518,-0.0034, 0.0707, 0.3145, 1.4868,-1.1649, 0.6836
09-Sep-2020 11:12:47.505, 0.7042, 0.8979, 0.0498,-0.0034, 0.0707, 0.3145, 1.4882,-1.1617, 0.6843
09-Sep-2020 11:12:47.515, 0.7327, 0.8891, 0.0260, 0.0538,-0.0693, 0.4640, 1.4878,-1.1580, 0.6842
09-Sep-2020 11:12:47.525, 0.7688, 0.8702,-0.0222, 0.0748,-0.0028, 0.5890, 1.4868,-1.1533, 0.6838
09-Sep-2020 11:12:47.536, 0.7932, 0.8647,-0.0934, 0.0791, 0.0902, 0.6977, 1.4861,-1.1473, 0.6832
09-Sep-2020 11:12:47.545, 0.8053, 0.8807,-0.1571, 0.0515, 0.1516, 0.7276, 1.4865,-1.1403, 0.6826
09-Sep-2020 11:12:47.555, 0.7571, 0.9679,-0.1956, 0.0246, 0.1247, 0.5296, 1.4881,-1.1331, 0.6828
09-Sep-2020 11:12:47.565, 0.6498, 1.1789,-0.2094, 0.0388,-0.1062, 0.0267, 1.4894,-1.1280, 0.6830
09-Sep-2020 11:12:47.575, 0.5632, 1.5230,-0.1974, 0.1389,-0.5352,-0.7344, 1.4871,-1.1277, 0.6819
09-Sep-2020 11:12:47.585, 0.5228, 1.8799,-0.1443, 0.2365,-1.1470,-1.4517, 1.4773,-1.1348, 0.6771
09-Sep-2020 11:12:47.595, 0.5501, 2.0746,-0.0905, 0.2690,-1.8349,-1.7253, 1.4576,-1.1485, 0.6680
09-Sep-2020 11:12:47.605, 0.6317, 1.9337,-0.0199, 0.2901,-1.9959,-1.4985, 1.4287,-1.1648, 0.6560
09-Sep-2020 11:12:47.615, 0.5195, 1.4886, 0.0839, 0.2901,-1.9959,-1.4985, 1.3969,-1.1790, 0.6427
09-Sep-2020 11:12:47.625, 0.1783, 1.0215, 0.2447,-0.0046,-1.4244,-1.2753, 1.3688,-1.1910, 0.6305
09-Sep-2020 11:12:47.635,-0.1143, 0.7389, 0.4368,-0.3331,-1.0854,-1.4770, 1.3481,-1.2035, 0.6234
09-Sep-2020 11:12:47.645,-0.2822, 0.5961, 0.5428,-0.5474,-0.4836,-1.7268, 1.3369,-1.2185, 0.6228
09-Sep-2020 11:12:47.655,-0.2988, 0.5064, 0.4507,-0.6310, 0.3233,-1.8533, 1.3356,-1.2363, 0.6264
09-Sep-2020 11:12:47.664,-0.1831, 0.4602, 0.2663,-0.6879, 1.0689,-1.8546, 1.3444,-1.2555, 0.6323
09-Sep-2020 11:12:47.675,-0.0871, 0.4542, 0.1102,-0.7536, 1.6587,-1.8101, 1.3635,-1.2749, 0.6413
09-Sep-2020 11:12:47.685,-0.0275, 0.5013, 0.0280,-0.8350, 2.1445,-1.7613, 1.3932,-1.2940, 0.6551
09-Sep-2020 11:12:47.695, 0.0204, 0.6330,-0.0219,-0.8690, 2.5817,-1.7410, 1.4342,-1.3125, 0.6755
09-Sep-2020 11:12:47.705, 0.0611, 0.8202,-0.0888,-0.8630, 2.9790,-1.7330, 1.4859,-1.3306, 0.7023
09-Sep-2020 11:12:47.715, 0.0932, 1.0154,-0.1324,-0.8561, 3.3238,-1.7079, 1.5478,-1.3482, 0.7356
09-Sep-2020 11:12:47.724, 0.1349, 1.1577,-0.1556,-0.8347, 3.6504,-1.6539, 1.6208,-1.3650, 0.7764
09-Sep-2020 11:12:47.734, 0.1744, 1.2511,-0.1758,-0.8172, 3.9134,-1.5495, 1.7056,-1.3806, 0.8259
09-Sep-2020 11:12:47.745, 0.2117, 1.2715,-0.1940,-0.8166, 4.0751,-1.3544, 1.8024,-1.3941, 0.8848
09-Sep-2020 11:12:47.754, 0.2425, 1.2068,-0.1909,-0.8098, 4.1399,-1.1311, 1.9095,-1.4047, 0.9524
09-Sep-2020 11:12:47.764, 0.2387, 1.1056,-0.1846,-0.7716, 4.0608,-0.8919, 2.0219,-1.4119, 1.0246
09-Sep-2020 11:12:47.774, 0.2338, 1.0043,-0.1909,-0.6486, 3.7714,-0.6907, 2.1313,-1.4160, 1.0946
09-Sep-2020 11:12:47.784, 0.2153, 0.9232,-0.2336,-0.2977, 3.0936,-0.5170, 2.2269,-1.4180, 1.1536
09-Sep-2020 11:12:47.794, 0.1909, 0.8311,-0.3009, 0.3019, 2.0200,-0.4001, 2.2926,-1.4202, 1.1893
09-Sep-2020 11:12:47.804, 0.1837, 0.7525,-0.3499, 0.8202, 0.7807,-0.2466, 2.3151,-1.4251, 1.1918
09-Sep-2020 11:12:47.814, 0.2243, 0.7245,-0.3381, 1.0258,-0.3130,-0.0528, 2.2925,-1.4322, 1.1611
09-Sep-2020 11:12:47.824, 0.2535, 0.7411,-0.2625, 1.0088,-1.0324, 0.1584, 2.2345,-1.4390, 1.1055
09-Sep-2020 11:12:47.834, 0.2752, 0.7688,-0.1682, 0.9065,-1.2614, 0.3177, 2.1548,-1.4435, 1.0352
09-Sep-2020 11:12:47.844, 0.2621, 0.8247,-0.1004, 0.8087,-1.2038, 0.3860, 2.0683,-1.4455, 0.9605
09-Sep-2020 11:12:47.854, 0.2393, 0.8720,-0.0808, 0.7781,-1.0158, 0.3848, 1.9848,-1.4456, 0.8884
09-Sep-2020 11:12:47.864, 0.2162, 0.9108,-0.0536, 0.8578,-0.7736, 0.3202, 1.9057,-1.4449, 0.8188
09-Sep-2020 11:12:47.874, 0.2068, 0.9471,-0.0437, 1.0939,-0.5884, 0.2147, 1.8251,-1.4443, 0.7454
09-Sep-2020 11:12:47.883, 0.2030, 0.9881,-0.0549, 1.3894,-0.4980, 0.0859, 1.7310,-1.4444, 0.6565
09-Sep-2020 11:12:47.893, 0.1761, 1.0098, 0.0408, 1.2705,-0.5857,-0.0811, 1.6188,-1.4449, 0.5485
09-Sep-2020 11:12:47.903, 0.1144, 0.9928, 0.3118, 0.7668,-0.7732,-0.2553, 1.5144,-1.4456, 0.4492
09-Sep-2020 11:12:47.913, 0.0756, 0.9997, 0.4698, 0.2494,-0.8200,-0.3626, 1.4440,-1.4474, 0.3859
09-Sep-2020 11:12:47.923, 0.0835, 1.0265, 0.4661, 0.0141,-0.5347,-0.3349, 1.4101,-1.4504, 0.3598
09-Sep-2020 11:12:47.933, 0.1381, 1.0374, 0.3147, 0.0623,-0.0060,-0.2172, 1.3976,-1.4535, 0.3524
09-Sep-2020 11:12:47.943, 0.1921, 1.0329, 0.1368, 0.2490, 0.6031,-0.1628, 1.3881,-1.4555, 0.3428
09-Sep-2020 11:12:47.953, 0.2099, 1.0271,-0.0211, 0.4729, 1.1254,-0.1633, 1.3698,-1.4565, 0.3184
09-Sep-2020 11:12:47.963, 0.2248, 1.0019,-0.1574, 0.6552, 1.3872,-0.1849, 1.3376,-1.4570, 0.2749
09-Sep-2020 11:12:47.973, 0.2256, 0.9600,-0.2446, 0.7679, 1.3479,-0.2411, 1.2920,-1.4571, 0.2153
09-Sep-2020 11:12:47.983, 0.1977, 0.9293,-0.2904, 0.8321, 1.1627,-0.4019, 1.2351,-1.4571, 0.1446
09-Sep-2020 11:12:47.993, 0.1175, 0.9125,-0.2807, 0.8575, 0.9725,-0.6624, 1.1660,-1.4578, 0.0635
09-Sep-2020 11:12:48.003, 0.0479, 0.9084,-0.2554, 0.8748, 0.8637,-0.8792, 1.0820,-1.4600,-0.0309
09-Sep-2020 11:12:48.013, 0.0291, 0.8932,-0.2295, 0.8830, 0.8756,-1.0029, 0.9821,-1.4629,-0.1401
09-Sep-2020 11:12:48.023, 0.0213, 0.8964,-0.1891, 0.8563, 0.9987,-1.0653, 0.8697,-1.4655,-0.2619
09-Sep-2020 11:12:48.033, 0.0102, 0.9181,-0.1441, 0.7716, 1.1482,-1.1092, 0.7515,-1.4673,-0.3908
09-Sep-2020 11:12:48.043,-0.0018, 0.9403,-0.0886, 0.5904, 1.2742,-1.1451, 0.6338,-1.4684,-0.5205
09-Sep-2020 11:12:48.053,-0.0008, 0.9576,-0.0054, 0.2625, 1.3078,-1.1612, 0.5225,-1.4697,-0.6451
09-Sep-2020 11:12:48.066, 0.0104, 0.9849, 0.0897,-0.1627, 1.0993,-1.1902, 0.4208,-1.4727,-0.7602
09-Sep-2020 11:12:48.073, 0.0340, 1.0611, 0.1036,-0.3978, 0.6554,-1.0956, 0.3232,-1.4783,-0.8692
09-Sep-2020 11:12:48.083, 0.1364, 1.1259, 0.0541,-0.2325, 0.0205,-0.8368, 0.2252,-1.4847,-0.9740
09-Sep-2020 11:12:48.092, 0.2257, 1.1781, 0.0822,-0.0346,-0.4832,-0.5295, 0.1343,-1.4884,-1.0654
09-Sep-2020 11:12:48.102, 0.3093, 1.1769, 0.2113,-0.1317,-0.5950,-0.2767, 0.0667,-1.4895,-1.1287
09-Sep-2020 11:12:48.112, 0.3598, 1.1080, 0.2475,-0.3947,-0.5214, 0.0114, 0.0290,-1.4910,-1.1607
09-Sep-2020 11:12:48.122, 0.4059, 1.0335, 0.1254,-0.6090,-0.4764, 0.3244, 0.0279,-1.4949,-1.1566
09-Sep-2020 11:12:48.132, 0.4457, 0.9719,-0.0029,-0.6090,-0.4764, 0.3244, 0.0722,-1.5007,-1.1073
09-Sep-2020 11:12:48.142, 0.4752, 0.9254,-0.0470,-0.8211,-0.4469, 0.9295, 0.1750,-1.5072,-0.9996
09-Sep-2020 11:12:48.152, 0.4983, 0.8655,-0.0389,-0.8837,-0.3290, 1.2445, 0.3537,-1.5127,-0.8163
09-Sep-2020 11:12:48.162, 0.5455, 0.8369, 0.0008,-0.9252,-0.1560, 1.5805, 0.6152,-1.5146,-0.5511
09-Sep-2020 11:12:48.172, 0.6055, 0.8211,-0.0064,-0.9505,-0.0169, 1.9338, 0.9184,-1.5102,-0.2458
09-Sep-2020 11:12:48.182, 0.6708, 0.8183,-0.0548,-0.9441, 0.1447, 2.2913, 1.1850,-1.4980, 0.0215
09-Sep-2020 11:12:48.192, 0.7492, 0.8382,-0.1239,-0.8685, 0.3152, 2.6613, 1.3742,-1.4786, 0.2100
09-Sep-2020 11:12:48.202, 0.8579, 0.9032,-0.1861,-0.7366, 0.5563, 3.0096, 1.4927,-1.4535, 0.3258
09-Sep-2020 11:12:48.212, 0.9822, 0.9813,-0.1696,-0.7843, 0.8043, 3.3796, 1.5636,-1.4238, 0.3918
09-Sep-2020 11:12:48.222, 1.0789, 1.0202,-0.0040,-1.1362, 1.0831, 3.6380, 1.6160,-1.3900, 0.4368
09-Sep-2020 11:12:48.232, 1.0454, 1.0516, 0.1526,-1.6090, 1.1741, 3.5550, 1.6700,-1.3532, 0.4810
09-Sep-2020 11:12:48.242, 0.8972, 1.0700, 0.0999,-1.8945, 0.7013, 3.2335, 1.7279,-1.3161, 0.5290
09-Sep-2020 11:12:48.252, 0.7542, 1.0329,-0.1001,-1.7673, 0.4980, 2.7013, 1.7795,-1.2813, 0.5747
09-Sep-2020 11:12:48.262, 0.6971, 0.9927,-0.2086,-1.5833, 0.1976, 2.1129, 1.8190,-1.2511, 0.6113
09-Sep-2020 11:12:48.271, 0.4965, 1.0210,-0.2384,-1.4551,-0.0359, 1.6601, 1.8489,-1.2265, 0.6411
09-Sep-2020 11:12:48.282, 0.4242, 1.0109,-0.2541,-1.3502,-0.2347, 1.4130, 1.8730,-1.2063, 0.6672
09-Sep-2020 11:12:48.291, 0.4088, 1.0217,-0.2900,-1.2080,-0.6346, 1.2500, 1.8920,-1.1887, 0.6902
09-Sep-2020 11:12:48.301, 0.3780, 1.1079,-0.4118,-1.0246,-1.3355, 1.1275, 1.9032,-1.1730, 0.7093
09-Sep-2020 11:12:48.311, 0.3413, 1.2476,-0.4684,-0.8407,-2.1667, 0.9638, 1.9037,-1.1590, 0.7244
09-Sep-2020 11:12:48.321, 0.2896, 1.4023,-0.4709,-0.5103,-3.0778, 0.8582, 1.8925,-1.1471, 0.7359
09-Sep-2020 11:12:48.331, 0.2600, 1.5212,-0.4345, 0.0309,-3.6833, 0.7575, 1.8665,-1.1374, 0.7407
09-Sep-2020 11:12:48.341, 0.1875, 1.5570,-0.1730, 0.3719,-3.6198, 0.6844, 1.8254,-1.1301, 0.7353
09-Sep-2020 11:12:48.351, 0.1837, 1.3712, 0.3538, 0.2016,-2.8944, 0.8477, 1.7795,-1.1240, 0.7240
09-Sep-2020 11:12:48.361, 0.2032, 1.1797, 0.6582, 0.0813,-2.0567, 0.9903, 1.7432,-1.1161, 0.7156
