Timestamp,accelX,accelY,accelZ,gyroX(rad/s),gyroY(rad/s),gyroZ(rad/s),Roll(rads),Pitch(rads),Yaw(rads)
09-Sep-2020 11:04:41.442,-0.3713,-0.1829,-0.8454,-1.2355, 0.7211,-0.4371,-0.1531, 0.0576,-1.2580
09-Sep-2020 11:04:41.445,-0.3622,-0.0951,-0.9707,-1.2155, 1.0667,-0.4768,-0.1531, 0.0576,-1.2580
09-Sep-2020 11:04:41.455,-0.3363,-0.0053,-1.0960,-1.0616, 1.1038,-0.6535,-0.1423, 0.0465,-1.2644
09-Sep-2020 11:04:41.465,-0.2976, 0.0321,-1.1705,-0.7989, 0.9672,-0.8811,-0.1312, 0.0370,-1.2722
09-Sep-2020 11:04:41.475,-0.2441, 0.0110,-1.1776,-0.4931, 0.7553,-1.0847,-0.1213, 0.0303,-1.2818
09-Sep-2020 11:04:41.485,-0.2078,-0.0176,-1.1507,-0.1948, 0.4074,-1.1534,-0.1136, 0.0267,-1.2928
09-Sep-2020 11:04:41.495,-0.2149,-0.0222,-1.0771, 0.0347, 0.0865,-1.0747,-0.1092, 0.0260,-1.3042
09-Sep-2020 11:04:41.505,-0.2550,-0.0120,-1.0374, 0.1896,-0.0925,-0.9679,-0.1079, 0.0275,-1.3146
09-Sep-2020 11:04:41.515,-0.2879, 0.0075,-1.0225, 0.2862,-0.1491,-1.0008,-0.1085, 0.0304,-1.3240
09-Sep-2020 11:04:41.525,-0.2783,-0.0025,-1.0337, 0.3600,-0.0679,-1.1741,-0.1096, 0.0343,-1.3335
09-Sep-2020 11:04:41.535,-0.2235,-0.0065,-1.0147, 0.4034,-0.1579,-1.3980,-0.1100, 0.0392,-1.3446
09-Sep-2020 11:04:41.544,-0.1791, 0.0058,-0.8991, 0.3183,-0.3094,-1.5595,-0.1111, 0.0446,-1.3579
09-Sep-2020 11:04:41.554,-0.1731,-0.0512,-0.8019, 0.1159,-0.3409,-1.5515,-0.1134, 0.0495,-1.3727
09-Sep-2020 11:04:41.564,-0.1851,-0.1136,-0.7109,-0.1368,-0.1175,-1.4080,-0.1159, 0.0523,-1.3878
09-Sep-2020 11:04:41.574,-0.2103,-0.1186,-0.6951,-0.3892, 0.1946,-1.2682,-0.1163, 0.0526,-1.4017
09-Sep-2020 11:04:41.584,-0.2099,-0.0822,-0.7645,-0.6043, 0.3414,-1.2385,-0.1138, 0.0503,-1.4146
09-Sep-2020 11:04:41.594,-0.1811,-0.0331,-0.8287,-0.7467, 0.3052,-1.3109,-0.1099, 0.0458,-1.4275
09-Sep-2020 11:04:41.604,-0.1256,-0.0002,-0.8475,-0.8248, 0.2706,-1.3825,-0.1063, 0.0398,-1.4411
09-Sep-2020 11:04:41.614,-0.1061, 0.0096,-0.8664,-0.8344, 0.2769,-1.3449,-0.1031, 0.0332,-1.4554
09-Sep-2020 11:04:41.624,-0.0748,-0.0342,-0.9216,-0.7386, 0.3662,-1.2561,-0.0998, 0.0264,-1.4694
09-Sep-2020 11:04:41.634,-0.0445,-0.0757,-0.9585,-0.5838, 0.3866,-1.1501,-0.0960, 0.0203,-1.4824
09-Sep-2020 11:04:41.644,-0.0306,-0.0967,-0.9591,-0.4553, 0.3994,-1.0031,-0.0920, 0.0156,-1.4942
09-Sep-2020 11:04:41.654,-0.0508,-0.0961,-0.9378,-0.3588, 0.5376,-0.8454,-0.0878, 0.0120,-1.5043
09-Sep-2020 11:04:41.664,-0.0821,-0.0424,-0.9584,-0.2637, 0.7451,-0.7702,-0.0823, 0.0092,-1.5129
09-Sep-2020 11:04:41.674,-0.0892, 0.0134,-1.0001,-0.1348, 0.8929,-0.7960,-0.0748, 0.0073,-1.5207
09-Sep-2020 11:04:41.684,-0.0623, 0.0184,-1.0147, 0.0332, 1.0042,-0.8414,-0.0660, 0.0066,-1.5286
09-Sep-2020 11:04:41.694,-0.0171, 0.0270,-0.9850, 0.1967, 1.1943,-0.8739,-0.0559, 0.0074,-1.5367
09-Sep-2020 11:04:41.703, 0.0556, 0.0113,-0.9749, 0.2815, 1.3839,-0.8872,-0.0439, 0.0098,-1.5452
09-Sep-2020 11:04:41.714, 0.0444, 0.0270,-0.9193, 0.2728, 1.5797,-0.9582,-0.0301, 0.0129,-1.5538
09-Sep-2020 11:04:41.723, 0.0151, 0.0115,-0.8432, 0.1640, 1.8819,-1.0631,-0.0142, 0.0158,-1.5631
09-Sep-2020 11:04:41.733, 0.0163,-0.0496,-0.8174,-0.0653, 2.1869,-1.0877, 0.0047, 0.0174,-1.5735
09-Sep-2020 11:04:41.743, 0.0460,-0.0442,-0.8198,-0.3784, 2.4546,-1.0424, 0.0266, 0.0166,-1.5841
09-Sep-2020 11:04:41.753, 0.1093, 0.0335,-0.8910,-0.7744, 2.4093,-0.9819, 0.0509, 0.0124,-1.5942
09-Sep-2020 11:04:41.763, 0.1655, 0.1146,-0.9700,-1.0846, 2.1484,-0.9514, 0.0748, 0.0042,-1.6033
09-Sep-2020 11:04:41.773, 0.1898, 0.1806,-1.0173,-1.2620, 1.9349,-0.9599, 0.0962,-0.0072,-1.6117
09-Sep-2020 11:04:41.783, 0.1915, 0.2592,-1.0452,-1.3041, 1.8687,-1.0115, 0.1155,-0.0206,-1.6198
09-Sep-2020 11:04:41.793, 0.2074, 0.2966,-1.0674,-1.2771, 1.9502,-1.1046, 0.1339,-0.0347,-1.6280
09-Sep-2020 11:04:41.803, 0.2849, 0.2554,-1.1996,-1.1881, 2.0365,-1.2181, 0.1530,-0.0487,-1.6370
09-Sep-2020 11:04:41.813, 0.3774, 0.2202,-1.3005,-1.0360, 1.7446,-1.3201, 0.1723,-0.0623,-1.6469
09-Sep-2020 11:04:41.823, 0.4002, 0.2062,-1.2807,-0.6863, 1.5145,-1.4119, 0.1890,-0.0746,-1.6579
09-Sep-2020 11:04:41.833, 0.4249, 0.1665,-1.2300,-0.3886, 1.2395,-1.4873, 0.2030,-0.0840,-1.6702
09-Sep-2020 11:04:41.843, 0.4045, 0.1228,-1.1183,-0.2056, 1.0267,-1.5713, 0.2142,-0.0909,-1.6838
09-Sep-2020 11:04:41.854, 0.3453, 0.0375,-1.0225,-0.1928, 0.7700,-1.6740, 0.2230,-0.0964,-1.6985
09-Sep-2020 11:04:41.863, 0.2643,-0.0711,-0.9848,-0.2855, 0.5556,-1.8592, 0.2291,-0.1020,-1.7143
09-Sep-2020 11:04:41.873, 0.2669,-0.1033,-0.9968,-0.3763, 0.3290,-2.1413, 0.2327,-0.1090,-1.7315
09-Sep-2020 11:04:41.883, 0.3698, 0.0224,-0.9798,-0.4897, 0.0937,-2.3028, 0.2337,-0.1175,-1.7511
09-Sep-2020 11:04:41.893, 0.4437, 0.1145,-0.9806,-0.6142,-0.1377,-2.1528, 0.2321,-0.1275,-1.7719
09-Sep-2020 11:04:41.903, 0.4629, 0.0978,-0.9804,-0.7134,-0.3268,-1.7228, 0.2282,-0.1382,-1.7911
09-Sep-2020 11:04:41.912, 0.4349, 0.0225,-0.9703,-0.7249,-0.4106,-1.2057, 0.2228,-0.1488,-1.8060
09-Sep-2020 11:04:41.922, 0.3690,-0.0462,-0.9600,-0.6125,-0.3166,-0.7979, 0.2172,-0.1584,-1.8158
09-Sep-2020 11:04:41.933, 0.3091,-0.0624,-0.9681,-0.4222,-0.0895,-0.5649, 0.2131,-0.1659,-1.8221
09-Sep-2020 11:04:41.943, 0.2689,-0.0307,-0.9871,-0.2309, 0.1604,-0.4508, 0.2114,-0.1712,-1.8264
09-Sep-2020 11:04:41.952, 0.2020, 0.0106,-1.0226,-0.0736, 0.3814,-0.3898, 0.2123,-0.1744,-1.8299
09-Sep-2020 11:04:41.962, 0.1258, 0.0710,-1.0675, 0.0732, 0.6416,-0.3473, 0.2155,-0.1759,-1.8332
09-Sep-2020 11:04:41.972, 0.0642, 0.1339,-1.1048, 0.2002, 0.7867,-0.3033, 0.2212,-0.1759,-1.8363
09-Sep-2020 11:04:41.982, 0.0020, 0.1459,-1.1168, 0.2769, 0.7112,-0.3466, 0.2282,-0.1746,-1.8394
09-Sep-2020 11:04:41.992,-0.0180, 0.1387,-1.1057, 0.3087, 0.5465,-0.4886, 0.2346,-0.1727,-1.8431
09-Sep-2020 11:04:42.002, 0.0222, 0.1198,-1.1004, 0.2704, 0.3127,-0.6281, 0.2390,-0.1708,-1.8482
09-Sep-2020 11:04:42.012, 0.0943, 0.0707,-1.1164, 0.1524,-0.0501,-0.7379, 0.2409,-0.1697,-1.8546
09-Sep-2020 11:04:42.022, 0.1287, 0.0082,-1.1552, 0.0007,-0.3819,-0.8310, 0.2391,-0.1699,-1.8619
09-Sep-2020 11:04:42.032, 0.0570,-0.0487,-1.1735,-0.1018,-0.4052,-1.0186, 0.2341,-0.1718,-1.8700
09-Sep-2020 11:04:42.042, 0.0357,-0.0158,-1.1700,-0.1155,-0.2692,-1.3226, 0.2285,-0.1750,-1.8797
09-Sep-2020 11:04:42.052, 0.0457, 0.0682,-1.1440,-0.0704,-0.1948,-1.5726, 0.2235,-0.1790,-1.8923
09-Sep-2020 11:04:42.062, 0.0458, 0.1056,-1.1026,-0.0020,-0.1486,-1.6750, 0.2188,-0.1830,-1.9074
09-Sep-2020 11:04:42.072, 0.0274, 0.0982,-1.0945, 0.0557,-0.0394,-1.6872, 0.2143,-0.1866,-1.9238
09-Sep-2020 11:04:42.082, 0.0074, 0.0760,-1.1433, 0.1329, 0.1937,-1.6672, 0.2109,-0.1895,-1.9405
09-Sep-2020 11:04:42.092, 0.0087, 0.0694,-1.1934, 0.2761, 0.5947,-1.6709, 0.2097,-0.1916,-1.9572
09-Sep-2020 11:04:42.102, 0.0206, 0.1199,-1.2071, 0.5407, 1.1890,-1.7909, 0.2125,-0.1923,-1.9743
09-Sep-2020 11:04:42.112, 0.0359, 0.1711,-1.2502, 0.9033, 1.7166,-1.9675, 0.2207,-0.1907,-1.9931
09-Sep-2020 11:04:42.121, 0.0874, 0.1940,-1.2390, 1.2705, 2.0533,-2.1560, 0.2336,-0.1863,-2.0145
09-Sep-2020 11:04:42.132, 0.1917, 0.1736,-1.2173, 1.5482, 2.3101,-2.3592, 0.2496,-0.1792,-2.0386
09-Sep-2020 11:04:42.142, 0.2886, 0.1508,-1.2294, 1.6919, 2.3029,-2.5316, 0.2677,-0.1703,-2.0655
09-Sep-2020 11:04:42.152, 0.3149, 0.1574,-1.2035, 1.7172, 2.0623,-2.6213, 0.2857,-0.1610,-2.0945
09-Sep-2020 11:04:42.162, 0.2919, 0.1796,-1.1474, 1.6455, 1.7068,-2.6716, 0.3013,-0.1522,-2.1246
09-Sep-2020 11:04:42.172, 0.2293, 0.2119,-1.0495, 1.5370, 1.4945,-2.7868, 0.3139,-0.1446,-2.1550
09-Sep-2020 11:04:42.181, 0.1129, 0.2354,-0.9346, 1.4514, 1.5648,-3.0389, 0.3245,-0.1388,-2.1862
09-Sep-2020 11:04:42.191, 0.0441, 0.2718,-0.8365, 1.3924, 1.8594,-3.3975, 0.3357,-0.1349,-2.2195
09-Sep-2020 11:04:42.201, 0.0914, 0.3074,-0.7800, 1.3311, 2.2501,-3.7829, 0.3493,-0.1331,-2.2560
09-Sep-2020 11:04:42.211, 0.2009, 0.3262,-0.7782, 1.2087, 2.4503,-4.0812, 0.3662,-0.1339,-2.2958
09-Sep-2020 11:04:42.221, 0.3067, 0.3182,-0.7911, 1.0224, 2.3615,-4.2499, 0.3847,-0.1375,-2.3378
09-Sep-2020 11:04:42.231, 0.3765, 0.2810,-0.7427, 0.7877, 2.1567,-4.3458, 0.4020,-0.1443,-2.3807
09-Sep-2020 11:04:42.241, 0.4065, 0.2430,-0.6791, 0.5148, 2.0002,-4.3894, 0.4171,-0.1543,-2.4235
09-Sep-2020 11:04:42.251, 0.4096, 0.2193,-0.6485, 0.2506, 1.8312,-4.4342, 0.4302,-0.1675,-2.4655
09-Sep-2020 11:04:42.261, 0.4097, 0.2187,-0.5968,-0.0143, 1.7621,-4.4884, 0.4412,-0.1838,-2.5067
09-Sep-2020 11:04:42.271, 0.4281, 0.2332,-0.5732,-0.2705, 1.9368,-4.4756, 0.4510,-0.2031,-2.5472
09-Sep-2020 11:04:42.281, 0.5083, 0.3107,-0.6158,-0.4734, 2.3951,-4.1654, 0.4621,-0.2250,-2.5862
09-Sep-2020 11:04:42.291, 0.5653, 0.3497,-0.6725,-0.5134, 2.9726,-3.5584, 0.4777,-0.2477,-2.6213
09-Sep-2020 11:04:42.301, 0.5200, 0.3282,-0.7192,-0.3025, 3.5871,-2.9400, 0.4996,-0.2686,-2.6507
09-Sep-2020 11:04:42.311, 0.4093, 0.3694,-0.6979, 0.1088, 4.2905,-2.5849, 0.5285,-0.2855,-2.6754
09-Sep-2020 11:04:42.321, 0.3475, 0.4483,-0.6741, 0.6376, 4.9898,-2.5199, 0.5644,-0.2979,-2.6986
09-Sep-2020 11:04:42.331, 0.3975, 0.4466,-0.7091, 1.1225, 5.3351,-2.6078, 0.6062,-0.3065,-2.7238
09-Sep-2020 11:04:42.341, 0.5089, 0.3999,-0.7194, 1.4480, 5.3062,-2.7031, 0.6503,-0.3127,-2.7524
09-Sep-2020 11:04:42.351, 0.6614, 0.3370,-0.7811, 1.5591, 4.8515,-2.6787, 0.6931,-0.3182,-2.7835
09-Sep-2020 11:04:42.360, 0.7569, 0.2990,-0.7875, 1.4421, 4.0749,-2.5757, 0.7311,-0.3238,-2.8151
09-Sep-2020 11:04:42.371, 0.7764, 0.3581,-0.7188, 1.1942, 3.3266,-2.5615, 0.7620,-0.3308,-2.8450
09-Sep-2020 11:04:42.381, 0.7948, 0.4700,-0.6349, 0.9396, 2.8806,-2.6289, 0.7860,-0.3400,-2.8731
09-Sep-2020 11:04:42.390, 0.7798, 0.4876,-0.5466, 0.6891, 2.6944,-2.6168, 0.8059,-0.3521,-2.8995
09-Sep-2020 11:04:42.400, 0.7393, 0.4488,-0.4575, 0.4503, 2.7953,-2.5869, 0.8243,-0.3663,-2.9239
09-Sep-2020 11:04:42.410, 0.6957, 0.4267,-0.3900, 0.2837, 3.0600,-2.5266, 0.8441,-0.3822,-2.9460
09-Sep-2020 11:04:42.420, 0.7094, 0.4234,-0.3590, 0.1912, 3.4612,-2.2985, 0.8670,-0.3991,-2.9660
09-Sep-2020 11:04:42.430, 0.7780, 0.4697,-0.3548, 0.2549, 3.7934,-1.9384, 0.8945,-0.4153,-2.9835
09-Sep-2020 11:04:42.440, 0.8414, 0.4523,-0.3749, 0.4319, 4.1738,-1.5339, 0.9261,-0.4288,-2.9986
09-Sep-2020 11:04:42.451, 0.9117, 0.3980,-0.4215, 0.5521, 4.3451,-1.0993, 0.9617,-0.4386,-3.0123
09-Sep-2020 11:04:42.460, 0.9588, 0.4090,-0.3971, 0.5132, 4.4116,-0.6710, 0.9999,-0.4446,-3.0239
09-Sep-2020 11:04:42.470, 0.9724, 0.4528,-0.3590, 0.2983, 4.6471,-0.2694, 1.0402,-0.4476,-3.0325
09-Sep-2020 11:04:42.480, 0.9580, 0.5304,-0.3267,-0.0158, 5.0899, 0.0800, 1.0847,-0.4484,-3.0368
09-Sep-2020 11:04:42.490, 0.9509, 0.6087,-0.3027,-0.2675, 5.7461, 0.2668, 1.1357,-0.4477,-3.0363
09-Sep-2020 11:04:42.500, 0.9496, 0.5518,-0.3348,-0.3972, 6.4885, 0.3624, 1.1946,-0.4463,-3.0325
09-Sep-2020 11:04:42.510, 0.9468, 0.4525,-0.3837,-0.4004, 6.9558, 0.4495, 1.2612,-0.4441,-3.0271
09-Sep-2020 11:04:42.520, 0.9291, 0.3638,-0.3875,-0.2581, 7.1675, 0.5500, 1.3326,-0.4408,-3.0216
09-Sep-2020 11:04:42.530, 0.8899, 0.2792,-0.3698,-0.0305, 7.0866, 0.6430, 1.4054,-0.4358,-3.0177
09-Sep-2020 11:04:42.540, 0.8753, 0.2858,-0.3021, 0.2009, 6.7961, 0.6805, 1.4763,-0.4295,-3.0165
09-Sep-2020 11:04:42.550, 0.8427, 0.3395,-0.2103, 0.3905, 6.4663, 0.6969, 1.5432,-0.4226,-3.0182
09-Sep-2020 11:04:42.560, 0.8344, 0.3555,-0.0724, 0.4894, 6.4122, 0.7452, 1.6059,-0.4155,-3.0224
09-Sep-2020 11:04:42.569, 0.9458, 0.3244, 0.0145, 0.5672, 6.6682, 0.8177, 1.6676,-0.4084,-3.0283
09-Sep-2020 11:04:42.579, 1.0975, 0.2421,-0.0355, 0.6606, 6.7061, 0.9758, 1.7309,-0.4009,-3.0356
09-Sep-2020 11:04:42.590, 1.1379, 0.2094,-0.0865, 0.7927, 6.4029, 1.1047, 1.7940,-0.3926,-3.0446
09-Sep-2020 11:04:42.599, 1.0597, 0.1894,-0.1050, 1.0006, 5.8167, 1.1277, 1.8532,-0.3840,-3.0559
09-Sep-2020 11:04:42.609, 0.9417, 0.2107,-0.0783, 1.2574, 5.1578, 1.0354, 1.9059,-0.3763,-3.0699
09-Sep-2020 11:04:42.619, 0.8478, 0.2713,-0.0125, 1.4953, 4.5994, 0.8592, 1.9512,-0.3711,-3.0864
09-Sep-2020 11:04:42.629, 0.8002, 0.3396, 0.0491, 1.6317, 4.1325, 0.6801, 1.9904,-0.3689,-3.1046
09-Sep-2020 11:04:42.639, 0.7355, 0.3842, 0.1062, 1.6581, 3.6490, 0.4791, 2.0247,-0.3696,-3.1234
09-Sep-2020 11:04:42.649, 0.6487, 0.4151, 0.2071, 1.6276, 3.1595, 0.2066, 2.0544,-0.3728,-3.1415
09-Sep-2020 11:04:42.659, 0.5890, 0.4095, 0.3797, 1.5660, 2.9765,-0.0700, 2.0801,-0.3787, 3.1253
09-Sep-2020 11:04:42.669, 0.6136, 0.3689, 0.5255, 1.4197, 3.1834,-0.1896, 2.1046,-0.3869, 3.1110
09-Sep-2020 11:04:42.679, 0.6604, 0.3123, 0.6301, 1.2089, 3.6981,-0.1365, 2.1319,-0.3957, 3.0990
09-Sep-2020 11:04:42.689, 0.6779, 0.3019, 0.6551, 1.0171, 4.3496,-0.0515, 2.1648,-0.4033, 3.0887
09-Sep-2020 11:04:42.699, 0.6477, 0.3297, 0.5948, 0.9042, 4.8289,-0.0523, 2.2045,-0.4096, 3.0800
09-Sep-2020 11:04:42.709, 0.7126, 0.3835, 0.4327, 0.8687, 4.8244,-0.1545, 2.2493,-0.4156, 3.0725
09-Sep-2020 11:04:42.719, 1.1555, 0.4551, 0.2009, 0.9696, 4.0792,-0.0402, 2.2941,-0.4222, 3.0661
09-Sep-2020 11:04:42.729, 1.1399, 0.3927, 0.3540, 0.9609, 3.3364, 0.2105, 2.3316,-0.4289, 3.0585
09-Sep-2020 11:04:42.739, 0.5648, 0.2765, 0.4568, 0.7535, 2.5283,-0.0005, 2.3610,-0.4342, 3.0497
09-Sep-2020 11:04:42.749, 0.4252, 0.3335, 0.4967, 0.6145, 1.6231,-0.3170, 2.3836,-0.4396, 3.0439
09-Sep-2020 11:04:42.759, 0.4682, 0.3653, 0.6119, 0.5564, 1.0229,-0.4656, 2.3990,-0.4462, 3.0416
09-Sep-2020 11:04:42.769, 0.5228, 0.3300, 0.7329, 0.4729, 0.9194,-0.4489, 2.4092,-0.4533, 3.0412
09-Sep-2020 11:04:42.778, 0.5497, 0.3254, 0.7789, 0.3632, 1.2531,-0.3304, 2.4187,-0.4597, 3.0413
09-Sep-2020 11:04:42.788, 0.5285, 0.3799, 0.7154, 0.3485, 1.5839,-0.1933, 2.4312,-0.4646, 3.0413
09-Sep-2020 11:04:42.798, 0.4722, 0.4395, 0.6449, 0.4737, 1.7268,-0.1536, 2.4463,-0.4686, 3.0404
09-Sep-2020 11:04:42.808, 0.4623, 0.5284, 0.6050, 0.6472, 1.6510,-0.2461, 2.4624,-0.4733, 3.0383
09-Sep-2020 11:04:42.818, 0.5406, 0.6319, 0.6610, 0.8279, 1.6017,-0.3913, 2.4778,-0.4799, 3.0360
09-Sep-2020 11:04:42.828, 0.7324, 0.6454, 0.6633, 0.9122, 1.6568,-0.3887, 2.4928,-0.4886, 3.0337
09-Sep-2020 11:04:42.838, 0.8442, 0.5664, 0.5692, 0.8940, 1.5340,-0.2110, 2.5078,-0.4981, 3.0309
09-Sep-2020 11:04:42.848, 0.7713, 0.4824, 0.5931, 0.9162, 1.4018,-0.0573, 2.5211,-0.5065, 3.0268
09-Sep-2020 11:04:42.858, 0.7046, 0.4727, 0.6409, 1.0373, 1.3416, 0.0553, 2.5323,-0.5144, 3.0212
09-Sep-2020 11:04:42.868, 0.6253, 0.4960, 0.6852, 1.1557, 1.2937, 0.1482, 2.5421,-0.5226, 3.0139
09-Sep-2020 11:04:42.878, 0.4755, 0.4577, 0.7612, 1.1684, 1.2019, 0.2452, 2.5504,-0.5312, 3.0050
09-Sep-2020 11:04:42.888, 0.3233, 0.4880, 0.8664, 1.0383, 1.2970, 0.2293, 2.5575,-0.5394, 2.9952
09-Sep-2020 11:04:42.898, 0.2354, 0.5859, 0.9673, 0.8492, 1.7326, 0.0601, 2.5661,-0.5469, 2.9864
09-Sep-2020 11:04:42.908, 0.2454, 0.6570, 0.9542, 0.6770, 2.1797,-0.1184, 2.5802,-0.5537, 2.9804
09-Sep-2020 11:04:42.918, 0.2553, 0.6846, 1.0957, 0.1727, 1.6911,-0.3266, 2.5996,-0.5598, 2.9775
09-Sep-2020 11:04:42.928, 0.4297, 0.5334, 1.2373,-0.7389, 0.6986,-0.5811, 2.6174,-0.5627, 2.9799
09-Sep-2020 11:04:42.938, 0.6284, 0.4212, 0.9855,-1.2550, 0.2396,-0.6217, 2.6299,-0.5593, 2.9898
09-Sep-2020 11:04:42.947, 0.4883, 0.4868, 0.7089,-1.2614, 0.1042,-0.6959, 2.6395,-0.5517, 3.0031
09-Sep-2020 11:04:42.958, 0.3369, 0.5137, 0.6557,-1.1163,-0.1628,-0.8507, 2.6478,-0.5441, 3.0172
09-Sep-2020 11:04:42.968, 0.3905, 0.4666, 0.6977,-0.8933,-0.3443,-0.8052, 2.6537,-0.5383, 3.0318
09-Sep-2020 11:04:42.978, 0.4317, 0.4546, 0.7159,-0.6441,-0.2989,-0.6153, 2.6570,-0.5341, 3.0447
09-Sep-2020 11:04:42.987, 0.4141, 0.4763, 0.7064,-0.4770,-0.2619,-0.4607, 2.6589,-0.5313, 3.0544
09-Sep-2020 11:04:42.997, 0.3840, 0.5081, 0.7229,-0.4348,-0.3128,-0.4094, 2.6599,-0.5292, 3.0617
09-Sep-2020 11:04:43.008, 0.3579, 0.5063, 0.7373,-0.4577,-0.4240,-0.4011, 2.6600,-0.5272, 3.0682
09-Sep-2020 11:04:43.017, 0.3478, 0.4949, 0.7624,-0.5186,-0.5371,-0.4415, 2.6590,-0.5250, 3.0748
09-Sep-2020 11:04:43.027, 0.3959, 0.4529, 0.7980,-0.5920,-0.4825,-0.4316, 2.6574,-0.5224, 3.0819
09-Sep-2020 11:04:43.037, 0.4417, 0.4368, 0.7922,-0.6987,-0.4167,-0.3623, 2.6563,-0.5192, 3.0894
09-Sep-2020 11:04:43.048, 0.4432, 0.4587, 0.7552,-0.7874,-0.4330,-0.3178, 2.6557,-0.5147, 3.0967
09-Sep-2020 11:04:43.057, 0.4367, 0.4698, 0.7440,-0.8603,-0.5043,-0.3379, 2.6550,-0.5093, 3.1041
09-Sep-2020 11:04:43.067, 0.4214, 0.4769, 0.7213,-0.9177,-0.7245,-0.3893, 2.6537,-0.5033, 3.1120
09-Sep-2020 11:04:43.077, 0.3802, 0.4574, 0.7145,-0.9786,-1.0810,-0.4868, 2.6505,-0.4971, 3.1208
09-Sep-2020 11:04:43.087, 0.3649, 0.4147, 0.6841,-1.0423,-1.5483,-0.6055, 2.6444,-0.4908, 3.1309
09-Sep-2020 11:04:43.097, 0.4181, 0.4372, 0.6889,-1.0572,-1.9331,-0.7142, 2.6344,-0.4846,-3.1408
09-Sep-2020 11:04:43.107, 0.4649, 0.4599, 0.7339,-1.0929,-2.2019,-0.7622, 2.6211,-0.4789,-3.1280
09-Sep-2020 11:04:43.117, 0.4800, 0.4357, 0.7508,-1.2004,-2.3963,-0.7571, 2.6054,-0.4733,-3.1145
09-Sep-2020 11:04:43.127, 0.4596, 0.3947, 0.7262,-1.3730,-2.6714,-0.7417, 2.5879,-0.4669,-3.1004
09-Sep-2020 11:04:43.137, 0.4926, 0.3408, 0.6918,-1.5568,-3.0238,-0.6966, 2.5680,-0.4593,-3.0853
09-Sep-2020 11:04:43.147, 0.5555, 0.2986, 0.6384,-1.7498,-3.4738,-0.5494, 2.5448,-0.4502,-3.0695
09-Sep-2020 11:04:43.157, 0.5983, 0.2590, 0.5467,-1.9738,-4.1987,-0.2415, 2.5168,-0.4389,-3.0535
09-Sep-2020 11:04:43.167, 0.6808, 0.1599, 0.4523,-2.2905,-5.2765, 0.2549, 2.4811,-0.4245,-3.0386
09-Sep-2020 11:04:43.177, 0.7641, 0.0519, 0.3134,-2.6871,-6.9049, 1.0248, 2.4335,-0.4050,-3.0251
09-Sep-2020 11:04:43.187, 0.7923, 0.0253, 0.2214,-2.9156,-8.4173, 1.9448, 2.3691,-0.3783,-3.0140
09-Sep-2020 11:04:43.196, 0.8037, 0.0420, 0.1806,-2.9308,-9.2445, 2.6563, 2.2888,-0.3445,-3.0057
09-Sep-2020 11:04:43.206, 0.9328, 0.1098, 0.3405,-2.7942,-9.5016, 3.1291, 2.1991,-0.3057,-2.9990
09-Sep-2020 11:04:43.216, 1.3031, 0.1891, 0.8042,-2.3171,-7.2757, 2.8314, 2.1086,-0.2653,-2.9925
09-Sep-2020 11:04:43.227, 1.4484, 0.2549, 0.7072,-1.9586,-5.1485, 2.1635, 2.0374,-0.2296,-2.9854
09-Sep-2020 11:04:43.236, 1.0648, 0.4008, 0.3144,-1.7118,-4.4912, 1.0067, 1.9870,-0.2020,-2.9766
09-Sep-2020 11:04:43.246, 0.9523, 0.4164,-0.0647,-1.3126,-4.8262,-0.0003, 1.9440,-0.1861,-2.9647
09-Sep-2020 11:04:43.256, 1.1534, 0.3468, 0.0751,-0.7379,-4.7593,-0.5266, 1.8985,-0.1814,-2.9526
09-Sep-2020 11:04:43.266, 1.1696, 0.2747, 0.4977,-0.4975,-4.3411,-0.8164, 1.8529,-0.1839,-2.9437
09-Sep-2020 11:04:43.276, 1.0348, 0.2644, 0.6010,-0.5860,-3.6202,-0.9902, 1.8112,-0.1903,-2.9365
09-Sep-2020 11:04:43.286, 0.9542, 0.2562, 0.4882,-0.6792,-2.7613,-1.0082, 1.7768,-0.1985,-2.9285
09-Sep-2020 11:04:43.296, 0.9708, 0.2229, 0.4191,-0.7352,-2.0258,-0.8930, 1.7510,-0.2069,-2.9198
09-Sep-2020 11:04:43.306, 0.9849, 0.2167, 0.3484,-0.7992,-1.4307,-0.7225, 1.7327,-0.2143,-2.9109
09-Sep-2020 11:04:43.316, 0.9991, 0.2070, 0.2192,-0.8666,-1.1420,-0.4928, 1.7202,-0.2201,-2.9017
09-Sep-2020 11:04:43.326, 1.0020, 0.1506, 0.0817,-0.8960,-1.0291,-0.1941, 1.7107,-0.2236,-2.8923
09-Sep-2020 11:04:43.336, 0.9143, 0.1140, 0.1022,-0.9324,-0.9160, 0.0190, 1.7026,-0.2243,-2.8830
09-Sep-2020 11:04:43.346, 0.8663, 0.1319, 0.2999,-1.1803,-0.5376, 0.0026, 1.6957,-0.2230,-2.8734
09-Sep-2020 11:04:43.356, 1.0119, 0.1086, 0.1561,-1.4607,-0.2902, 0.1478, 1.6930,-0.2213,-2.8614
09-Sep-2020 11:04:43.366, 0.9710, 0.1442, 0.0702,-1.6494,-1.1547, 0.3018, 1.6924,-0.2181,-2.8469
09-Sep-2020 11:04:43.376, 0.9427, 0.1521, 0.2891,-1.9620,-2.3354, 0.3472, 1.6843,-0.2131,-2.8305
09-Sep-2020 11:04:43.385, 0.9951, 0.1232, 0.3136,-2.2680,-3.5137, 0.4912, 1.6650,-0.2075,-2.8110
09-Sep-2020 11:04:43.395, 0.9614, 0.1382, 0.2676,-2.3241,-4.0576, 0.6606, 1.6350,-0.2008,-2.7886
09-Sep-2020 11:04:43.406, 0.9136, 0.1388, 0.2333,-2.1253,-3.8796, 0.7382, 1.5996,-0.1931,-2.7655
09-Sep-2020 11:04:43.415, 0.8844, 0.0920, 0.1846,-1.8585,-3.4050, 0.7573, 1.5652,-0.1855,-2.7441
09-Sep-2020 11:04:43.425, 0.8960, 0.0549, 0.1161,-1.6998,-2.9627, 0.7655, 1.5347,-0.1783,-2.7250
09-Sep-2020 11:04:43.435, 0.9137, 0.0404, 0.0577,-1.7373,-2.6781, 0.7490, 1.5082,-0.1714,-2.7073
09-Sep-2020 11:04:43.445, 0.9517, 0.0345,-0.0374,-1.9193,-2.4986, 0.6765, 1.4845,-0.1653,-2.6892
09-Sep-2020 11:04:43.456, 0.9902, 0.0041,-0.1453,-2.1615,-2.3793, 0.5858, 1.4628,-0.1604,-2.6692
09-Sep-2020 11:04:43.465, 1.0123,-0.0506,-0.2301,-2.4200,-2.2212, 0.5530, 1.4427,-0.1570,-2.6468
09-Sep-2020 11:04:43.475, 0.9979,-0.1022,-0.2607,-2.7313,-2.0258, 0.6059, 1.4245,-0.1547,-2.6218
09-Sep-2020 11:04:43.485, 0.9343,-0.1233,-0.2213,-3.1374,-1.7077, 0.6766, 1.4087,-0.1529,-2.5936
09-Sep-2020 11:04:43.495, 0.8943,-0.1205,-0.2011,-3.6389,-1.1402, 0.7548, 1.3968,-0.1514,-2.5612
09-Sep-2020 11:04:43.505, 0.8801,-0.0876,-0.2195,-4.2083,-0.5480, 0.8216, 1.3910,-0.1503,-2.5232
09-Sep-2020 11:04:43.515, 0.8605,-0.0289,-0.2237,-4.8122,-0.0368, 0.8352, 1.3920,-0.1497,-2.4793
09-Sep-2020 11:04:43.525, 0.8506, 0.0355,-0.2218,-5.3825, 0.4333, 0.8264, 1.3989,-0.1498,-2.4294
09-Sep-2020 11:04:43.535, 0.8634, 0.0644,-0.2273,-5.8790, 0.7692, 0.8451, 1.4113,-0.1505,-2.3737
09-Sep-2020 11:04:43.545, 0.9117, 0.0600,-0.2532,-6.2862, 0.8575, 0.9454, 1.4278,-0.1509,-2.3130
09-Sep-2020 11:04:43.555, 0.9960, 0.0578,-0.2893,-6.5983, 0.6425, 1.1499, 1.4457,-0.1498,-2.2480
09-Sep-2020 11:04:43.566, 1.0916, 0.0604,-0.3246,-6.8077, 0.1653, 1.4485, 1.4618,-0.1459,-2.1798
09-Sep-2020 11:04:43.575, 1.1387, 0.0787,-0.3220,-6.9347,-0.5177, 1.8244, 1.4732,-0.1384,-2.1091
09-Sep-2020 11:04:43.585, 1.1503, 0.1044,-0.3317,-6.9548,-1.3029, 2.2105, 1.4774,-0.1268,-2.0368
09-Sep-2020 11:04:43.595, 1.1318, 0.1473,-0.3375,-6.8041,-2.0948, 2.5477, 1.4729,-0.1114,-1.9642
09-Sep-2020 11:04:43.605, 1.0807, 0.2134,-0.2703,-6.5226,-2.7040, 2.7580, 1.4593,-0.0932,-1.8927
09-Sep-2020 11:04:43.614, 1.0140, 0.2813,-0.1816,-6.1536,-3.0558, 2.7799, 1.4382,-0.0739,-1.8236
09-Sep-2020 11:04:43.625, 0.9527, 0.3314,-0.1384,-5.7045,-3.1328, 2.6133, 1.4121,-0.0554,-1.7579
09-Sep-2020 11:04:43.634, 0.8729, 0.3386,-0.0918,-5.2175,-2.9659, 2.2833, 1.3840,-0.0396,-1.6964
09-Sep-2020 11:04:43.644, 0.8147, 0.2530,-0.0538,-4.7653,-2.7222, 1.9407, 1.3564,-0.0276,-1.6399
09-Sep-2020 11:04:43.654, 0.8167, 0.1060,-0.0444,-4.4025,-2.5419, 1.7580, 1.3304,-0.0193,-1.5883
09-Sep-2020 11:04:43.664, 0.8654,-0.0137,-0.0349,-4.1334,-2.3632, 1.8261, 1.3059,-0.0131,-1.5405
09-Sep-2020 11:04:43.674, 0.9226,-0.0739,-0.0221,-3.9205,-2.0933, 2.1139, 1.2828,-0.0066,-1.4951
09-Sep-2020 11:04:43.685, 0.9555,-0.0665,-0.0397,-3.7443,-1.7392, 2.4315, 1.2622, 0.0021,-1.4507
09-Sep-2020 11:04:43.694, 0.9704,-0.0411,-0.0736,-3.5559,-1.3473, 2.6648, 1.2446, 0.0135,-1.4070
09-Sep-2020 11:04:43.704, 0.9764,-0.0274,-0.0780,-3.3553,-0.8401, 2.7400, 1.2304, 0.0269,-1.3641
09-Sep-2020 11:04:43.714, 0.9994,-0.0213,-0.0707,-3.1787,-0.2614, 2.6909, 1.2207, 0.0413,-1.3227
09-Sep-2020 11:04:43.724, 1.0470,-0.0103,-0.0724,-3.0190, 0.3110, 2.5896, 1.2162, 0.0555,-1.2830
09-Sep-2020 11:04:43.734, 1.0996,-0.0115,-0.0601,-2.8888, 0.8721, 2.5149, 1.2169, 0.0693,-1.2450
09-Sep-2020 11:04:43.744, 1.1657,-0.0317,-0.0297,-2.7893, 1.3206, 2.5219, 1.2228, 0.0831,-1.2085
09-Sep-2020 11:04:43.754, 1.2463,-0.0387,-0.0376,-2.6979, 1.5773, 2.6611, 1.2327, 0.0975,-1.1730
09-Sep-2020 11:04:43.764, 1.2357,-0.0471,-0.0594,-2.5689, 1.6251, 2.8454, 1.2447, 0.1139,-1.1381
09-Sep-2020 11:04:43.774, 1.2103,-0.0583,-0.0685,-2.3799, 1.4919, 2.9951, 1.2566, 0.1328,-1.1040
09-Sep-2020 11:04:43.784, 1.1729,-0.0810,-0.0796,-2.1473, 1.2167, 3.0741, 1.2668, 0.1541,-1.0712
09-Sep-2020 11:04:43.794, 1.0882,-0.1215,-0.1464,-1.8333, 0.7891, 3.0029, 1.2739, 0.1770,-1.0409
09-Sep-2020 11:04:43.804, 0.9914,-0.1923,-0.1923,-1.4392, 0.2470, 2.7704, 1.2768, 0.2003,-1.0138
09-Sep-2020 11:04:43.814, 0.9273,-0.2703,-0.2125,-0.9967,-0.2524, 2.4237, 1.2746, 0.2226,-0.9911
09-Sep-2020 11:04:43.824, 0.9170,-0.3245,-0.4671,-0.4884,-0.9879, 2.0539, 1.2682, 0.2428,-0.9741
09-Sep-2020 11:04:43.833, 0.9426,-0.3900,-0.3491, 0.0398,-1.6957, 1.8780, 1.2554, 0.2610,-0.9628
09-Sep-2020 11:04:43.843, 1.0262,-0.4271,-0.5783, 0.2336,-2.2798, 1.6093, 1.2375, 0.2788,-0.9568
09-Sep-2020 11:04:43.853, 0.9034,-0.6219,-0.3354,-0.3945,-3.5073, 1.4414, 1.2125, 0.2946,-0.9526
09-Sep-2020 11:04:43.863, 0.8543,-0.3524,-0.2804,-0.2333,-2.3877, 1.3103, 1.1771, 0.3069,-0.9440
09-Sep-2020 11:04:43.873, 0.7722,-0.3302,-0.6815, 0.2317,-2.0732, 1.2024, 1.1503, 0.3181,-0.9364
09-Sep-2020 11:04:43.883, 0.7317,-0.4735,-0.3785, 0.2936,-1.7779, 1.1091, 1.1287, 0.3299,-0.9330
09-Sep-2020 11:04:43.893, 0.6622,-0.5346,-0.2242,-0.0129,-1.0256, 1.2111, 1.1104, 0.3412,-0.9303
09-Sep-2020 11:04:43.903, 0.6521,-0.4948,-0.2484,-0.5529,-0.2848, 1.4193, 1.0982, 0.3520,-0.9241
09-Sep-2020 11:04:43.913, 0.6971,-0.3883,-0.3552,-0.8327,-0.3495, 1.4664, 1.0906, 0.3620,-0.9121
09-Sep-2020 11:04:43.923, 0.6947,-0.3092,-0.3924,-0.9654,-0.1309, 1.4528, 1.0820, 0.3712,-0.8970
09-Sep-2020 11:04:43.933, 0.7434,-0.3046,-0.4272,-1.1149, 0.1828, 1.3991, 1.0747, 0.3795,-0.8804
09-Sep-2020 11:04:43.943, 0.7847,-0.3404,-0.4979,-1.1746, 0.2929, 1.3048, 1.0698, 0.3865,-0.8627
09-Sep-2020 11:04:43.953, 0.9248,-0.4013,-0.5342,-1.1805, 0.3156, 1.3471, 1.0658, 0.3924,-0.8448
09-Sep-2020 11:04:43.963, 1.0103,-0.4766,-0.5070,-1.1724, 0.2116, 1.4826, 1.0619, 0.3985,-0.8265
09-Sep-2020 11:04:43.973, 1.0206,-0.5158,-0.4162,-1.1925, 0.0982, 1.6100, 1.0566, 0.4058,-0.8075
09-Sep-2020 11:04:43.983, 1.2255,-0.4492,-0.2851,-1.3002, 0.1006, 1.8872, 1.0496, 0.4139,-0.7874
09-Sep-2020 11:04:43.993, 1.6537,-0.3405,-0.1801,-1.4840, 0.5526, 3.2741, 1.0415, 0.4245,-0.7642
09-Sep-2020 11:04:44.003, 1.4383,-0.2634,-0.1872,-1.6688, 0.8483, 4.6132, 1.0332, 0.4450,-0.7319
09-Sep-2020 11:04:44.012, 0.8457,-0.1262,-0.3014,-1.8715, 0.7795, 4.1199, 1.0231, 0.4748,-0.6898
09-Sep-2020 11:04:44.023, 0.6647,-0.2802,-0.3975,-1.8306, 0.6517, 3.3918, 1.0113, 0.5004,-0.6472
09-Sep-2020 11:04:44.032, 0.6164,-0.2556,-0.5045,-1.6664, 0.3934, 2.6551, 0.9990, 0.5191,-0.6090
09-Sep-2020 11:04:44.043, 0.5989,-0.2733,-0.5673,-1.4099,-0.1143, 2.1108, 0.9862, 0.5324,-0.5761
09-Sep-2020 11:04:44.053, 0.6740,-0.2798,-0.4988,-1.1346,-0.4493, 1.8756, 0.9713, 0.5422,-0.5487
09-Sep-2020 11:04:44.062, 0.7609,-0.2467,-0.4338,-0.9785,-0.5024, 1.9487, 0.9547, 0.5513,-0.5251
09-Sep-2020 11:04:44.072, 0.8039,-0.1935,-0.4126,-0.9352,-0.3312, 2.1321, 0.9378, 0.5614,-0.5022
09-Sep-2020 11:04:44.082, 0.7214,-0.1284,-0.3509,-0.9819,-0.0907, 2.2418, 0.9217, 0.5729,-0.4782
09-Sep-2020 11:04:44.092, 0.5116,-0.0908,-0.2978,-1.0785, 0.2073, 2.0831, 0.9069, 0.5845,-0.4527
09-Sep-2020 11:04:44.103, 0.3096,-0.1027,-0.3059,-1.1539, 0.5081, 1.6239, 0.8947, 0.5940,-0.4271
09-Sep-2020 11:04:44.112, 0.1012,-0.0704,-0.2791,-1.3478, 0.7102, 0.9375, 0.8868, 0.5993,-0.4040
09-Sep-2020 11:04:44.122, 0.3959,-0.2911,-0.4619,-1.5886, 0.4500, 0.3349, 0.8824, 0.5980,-0.3842
09-Sep-2020 11:04:44.132, 0.5676,-0.5126,-0.5647,-1.7648, 0.0313, 0.1071, 0.8771, 0.5908,-0.3667
09-Sep-2020 11:04:44.142, 0.6123,-0.6009,-0.5208,-1.7567,-0.0612,-0.2222, 0.8683, 0.5804,-0.3498
09-Sep-2020 11:04:44.152, 0.6977,-0.5719,-0.4677,-1.5418, 0.0907,-0.1882, 0.8599, 0.5680,-0.3351
09-Sep-2020 11:04:44.162, 0.5018,-0.1595,-0.7731,-1.3891,-0.7091,-1.5085, 0.8546, 0.5557,-0.3237
09-Sep-2020 11:04:44.172, 0.6350,-0.3993,-0.4732,-1.5255,-1.2606,-2.4827, 0.8474, 0.5354,-0.3227
09-Sep-2020 11:04:44.182, 0.5552,-0.4235,-0.3857,-1.6747,-1.3362,-2.4978, 0.8375, 0.5073,-0.3281
09-Sep-2020 11:04:44.192, 0.8461,-0.4102,-0.4046,-1.8280,-1.5756,-2.0209, 0.8264, 0.4780,-0.3327
09-Sep-2020 11:04:44.202, 0.8961,-0.3723,-0.1322,-1.9453,-1.1980,-1.4444, 0.8113, 0.4510,-0.3331
09-Sep-2020 11:04:44.212, 0.8143,-0.2986,-0.0566,-2.0863,-0.3399,-0.6966, 0.7978, 0.4274,-0.3285
09-Sep-2020 11:04:44.222, 0.8714,-0.2476,-0.1329,-2.2325, 0.1759,-0.0336, 0.7898, 0.4079,-0.3176
09-Sep-2020 11:04:44.231, 0.8481,-0.1801,-0.1706,-2.4204, 0.4488, 0.3641, 0.7849, 0.3919,-0.3007
09-Sep-2020 11:04:44.242, 0.7766,-0.0948,-0.2126,-2.6493, 0.5696, 0.5206, 0.7814, 0.3774,-0.2796
09-Sep-2020 11:04:44.251, 0.8824, 0.0425,-0.8517,-2.7671, 0.1612, 0.4560, 0.7783, 0.3622,-0.2558
09-Sep-2020 11:04:44.261, 0.9026, 0.1006,-1.0159,-1.9865,-1.0985, 0.4885, 0.7700, 0.3470,-0.2325
09-Sep-2020 11:04:44.271, 1.0139, 0.0236,-0.9133,-1.7912,-1.7224, 0.5931, 0.7527, 0.3360,-0.2138
09-Sep-2020 11:04:44.282, 0.9714, 0.0034,-0.9724,-1.4556,-2.1538, 0.8903, 0.7300, 0.3271,-0.1963
09-Sep-2020 11:04:44.291, 0.6801,-0.0226,-0.7016,-1.2875,-1.9266, 1.1149, 0.7034, 0.3219,-0.1791
09-Sep-2020 11:04:44.301, 0.5541, 0.0181,-0.6666,-1.3198,-1.2568, 1.2848, 0.6790, 0.3191,-0.1613
09-Sep-2020 11:04:44.311, 0.5019, 0.0302,-0.7559,-1.3930,-0.6767, 1.4181, 0.6605, 0.3168,-0.1421
09-Sep-2020 11:04:44.321, 0.4185, 0.0195,-0.8241,-1.3877,-0.3534, 1.5257, 0.6471, 0.3145,-0.1214
09-Sep-2020 11:04:44.331, 0.3319, 0.0513,-0.8702,-1.2124,-0.1550, 1.5791, 0.6369, 0.3126,-0.0999
09-Sep-2020 11:04:44.341, 0.2473, 0.0802,-0.8680,-0.9098, 0.1399, 1.5511, 0.6291, 0.3123,-0.0790
09-Sep-2020 11:04:44.351, 0.1291, 0.0551,-0.8311,-0.5979, 0.4553, 1.4028, 0.6247, 0.3140,-0.0603
09-Sep-2020 11:04:44.361, 0.0053,-0.0060,-0.8202,-0.3480, 0.6318, 1.1066, 0.6243, 0.3173,-0.0446
09-Sep-2020 11:04:44.371,-0.0402,-0.0507,-0.7987,-0.2102, 0.7204, 0.7368, 0.6269, 0.3210,-0.0330
09-Sep-2020 11:04:44.382,-0.0290,-0.1072,-0.7560,-0.2004, 0.6157, 0.3445, 0.6315, 0.3236,-0.0253
09-Sep-2020 11:04:44.391, 0.0068,-0.1782,-0.7060,-0.3175, 0.3641, 0.0082, 0.6362, 0.3240,-0.0209
09-Sep-2020 11:04:44.401, 0.0905,-0.1904,-0.7077,-0.5188,-0.0443,-0.1935, 0.6390, 0.3216,-0.0186
09-Sep-2020 11:04:44.411, 0.1222,-0.2255,-0.7142,-0.8296,-0.2457,-0.3061, 0.6382, 0.3163,-0.0168
09-Sep-2020 11:04:44.421, 0.1147,-0.3617,-0.7898,-1.2175,-0.1353,-0.3359, 0.6351, 0.3080,-0.0140
09-Sep-2020 11:04:44.430, 0.1333,-0.4619,-0.8508,-1.5822, 0.1579,-0.2915, 0.6324, 0.2963,-0.0092
09-Sep-2020 11:04:44.441, 0.1463,-0.4533,-0.8659,-1.8672, 0.4624,-0.2593, 0.6319, 0.2820,-0.0018
09-Sep-2020 11:04:44.450, 0.0980,-0.3820,-0.8643,-2.0546, 0.7592,-0.3734, 0.6340, 0.2656, 0.0074
09-Sep-2020 11:04:44.461, 0.0767,-0.3066,-0.8654,-2.1629, 0.8867,-0.6512, 0.6391, 0.2469, 0.0169
09-Sep-2020 11:04:44.471, 0.0997,-0.2776,-0.8551,-2.2529, 0.8782,-0.9934, 0.6459, 0.2259, 0.0249
09-Sep-2020 11:04:44.480, 0.1678,-0.2909,-0.8522,-2.3892, 0.8319,-1.2656, 0.6534, 0.2021, 0.0309
09-Sep-2020 11:04:44.490, 0.2717,-0.2990,-0.8795,-2.5855, 0.8800,-1.4189, 0.6608, 0.1757, 0.0358
09-Sep-2020 11:04:44.500, 0.4077,-0.2665,-0.9839,-2.7655, 0.9607,-1.4735, 0.6688, 0.1468, 0.0407
09-Sep-2020 11:04:44.510, 0.5286,-0.1790,-1.1319,-2.8536, 1.0032,-1.4771, 0.6776, 0.1163, 0.0466
09-Sep-2020 11:04:44.520, 0.6068,-0.0858,-1.2822,-2.7907, 0.9581,-1.4554, 0.6869, 0.0851, 0.0532
09-Sep-2020 11:04:44.530, 0.6424,-0.0045,-1.3775,-2.5557, 0.8834,-1.4268, 0.6959, 0.0547, 0.0598
09-Sep-2020 11:04:44.540, 0.6655, 0.0546,-1.4147,-2.1495, 0.8545,-1.4123, 0.7045, 0.0262, 0.0653
09-Sep-2020 11:04:44.550, 0.6976, 0.0908,-1.4125,-1.6209, 0.8517,-1.4289, 0.7130, 0.0009, 0.0686
09-Sep-2020 11:04:44.560, 0.7394, 0.0985,-1.3922,-1.0616, 0.8263,-1.4842, 0.7214,-0.0205, 0.0686
09-Sep-2020 11:04:44.570, 0.7810, 0.0681,-1.3653,-0.5567, 0.7748,-1.5641, 0.7295,-0.0382, 0.0647
09-Sep-2020 11:04:44.580, 0.8305, 0.0086,-1.3284,-0.1649, 0.6519,-1.6185, 0.7367,-0.0527, 0.0570
09-Sep-2020 11:04:44.590, 0.8656,-0.0591,-1.2571, 0.0753, 0.4769,-1.6068, 0.7425,-0.0647, 0.0463
09-Sep-2020 11:04:44.600, 0.8788,-0.1165,-1.1516, 0.1893, 0.3098,-1.5266, 0.7464,-0.0749, 0.0342
09-Sep-2020 11:04:44.610, 0.8858,-0.1295,-1.0360, 0.2043, 0.1872,-1.4200, 0.7485,-0.0838, 0.0219
09-Sep-2020 11:04:44.620, 0.8754,-0.1102,-0.9464, 0.1430, 0.1458,-1.3339, 0.7494,-0.0919, 0.0103
09-Sep-2020 11:04:44.630, 0.8701,-0.0716,-0.9135, 0.0462, 0.1162,-1.2908, 0.7498,-0.0999,-0.0003
09-Sep-2020 11:04:44.640, 0.8893,-0.0219,-0.9242,-0.0561, 0.0276,-1.2857, 0.7499,-0.1083,-0.0100
09-Sep-2020 11:04:44.649, 0.9111, 0.0336,-0.9411,-0.1055,-0.0968,-1.2991, 0.7492,-0.1173,-0.0190
09-Sep-2020 11:04:44.660, 0.9346, 0.0839,-0.9459,-0.0862,-0.2137,-1.3228, 0.7471,-0.1268,-0.0277
09-Sep-2020 11:04:44.669, 0.9730, 0.0964,-0.9505, 0.0072,-0.2946,-1.2851, 0.7438,-0.1362,-0.0368
09-Sep-2020 11:04:44.680, 1.0069, 0.0895,-0.9286, 0.1498,-0.2772,-1.1693, 0.7396,-0.1446,-0.0463
09-Sep-2020 11:04:44.689, 1.0577, 0.0782,-0.8805, 0.3279,-0.1794,-1.0096, 0.7355,-0.1513,-0.0559
09-Sep-2020 11:04:44.700, 1.1969,-0.0063,-0.7725, 0.4827,-0.0911,-0.7741, 0.7322,-0.1555,-0.0655
09-Sep-2020 11:04:44.709, 1.3579,-0.1556,-0.5995, 0.6471, 0.1132,-0.3424, 0.7299,-0.1568,-0.0744
09-Sep-2020 11:04:44.719, 1.3616,-0.1641,-0.4772, 0.8294, 0.4612, 0.1336, 0.7301,-0.1542,-0.0812
09-Sep-2020 11:04:44.729, 1.2607,-0.0128,-0.4985, 0.8622, 0.6349, 0.4010, 0.7339,-0.1473,-0.0857
09-Sep-2020 11:04:44.739, 1.1910, 0.1463,-0.5646, 0.6736, 0.5677, 0.4479, 0.7396,-0.1383,-0.0884
09-Sep-2020 11:04:44.749, 1.1512, 0.2333,-0.6269, 0.4121, 0.2983, 0.3656, 0.7450,-0.1304,-0.0896
09-Sep-2020 11:04:44.759, 1.1423, 0.2445,-0.6641, 0.1755,-0.0909, 0.2666, 0.7478,-0.1249,-0.0896
09-Sep-2020 11:04:44.769, 1.0865, 0.2630,-0.6980, 0.0700,-0.2255, 0.2218, 0.7472,-0.1216,-0.0888
09-Sep-2020 11:04:44.779, 1.0028, 0.2696,-0.7776, 0.1147,-0.2041, 0.2519, 0.7452,-0.1195,-0.0875
09-Sep-2020 11:04:44.789, 0.9144, 0.2652,-0.8635, 0.2972,-0.1346, 0.3290, 0.7433,-0.1168,-0.0864
09-Sep-2020 11:04:44.799, 0.8120, 0.2778,-0.9626, 0.5448,-0.1313, 0.3518, 0.7420,-0.1123,-0.0859
09-Sep-2020 11:04:44.809, 0.7128, 0.3186,-1.1088, 0.7802,-0.1855, 0.2642, 0.7406,-0.1059,-0.0869
09-Sep-2020 11:04:44.819, 0.6895, 0.3232,-1.4204, 1.0058,-0.6319, 0.0044, 0.7380,-0.0984,-0.0903
09-Sep-2020 11:04:44.830, 0.7338, 0.2700,-1.2568, 1.1917,-0.9159,-0.1271, 0.7312,-0.0908,-0.0968
09-Sep-2020 11:04:44.839, 0.6477, 0.1884,-0.9460, 1.4519,-0.7894,-0.0857, 0.7216,-0.0826,-0.1055
09-Sep-2020 11:04:44.848, 0.5879, 0.1441,-0.8791, 1.8176,-0.5485,-0.0336, 0.7130,-0.0722,-0.1156
09-Sep-2020 11:04:44.859, 0.5835, 0.1355,-0.8436, 2.1069,-0.2502, 0.0105, 0.7068,-0.0586,-0.1275
09-Sep-2020 11:04:44.868, 0.5873, 0.1262,-0.8955, 2.2337,-0.1986, 0.0072, 0.7035,-0.0426,-0.1409
09-Sep-2020 11:04:44.879, 0.5747, 0.1408,-0.9433, 2.2334,-0.4582,-0.1062, 0.7008,-0.0257,-0.1551
09-Sep-2020 11:04:44.889, 0.4674, 0.1243,-0.8577, 2.1286,-0.5987,-0.3430, 0.6961,-0.0094,-0.1702
09-Sep-2020 11:04:44.898, 0.3928, 0.0865,-0.7943, 2.0114,-0.5984,-0.5776, 0.6902, 0.0048,-0.1862
09-Sep-2020 11:04:44.908, 0.3613, 0.0936,-0.7655, 1.9721,-0.5488,-0.8040, 0.6845, 0.0168,-0.2033
09-Sep-2020 11:04:44.918, 0.3335, 0.0788,-0.7689, 1.9649,-0.4574,-1.0182, 0.6794, 0.0270,-0.2218
09-Sep-2020 11:04:44.928, 0.2825, 0.0673,-0.7372, 1.9881,-0.3079,-1.2350, 0.6756, 0.0360,-0.2418
09-Sep-2020 11:04:44.938, 0.2601, 0.0476,-0.6597, 2.0264,-0.0502,-1.4487, 0.6734, 0.0439,-0.2637
09-Sep-2020 11:04:44.948, 0.2443, 0.0256,-0.5813, 2.0616, 0.3288,-1.6637, 0.6741, 0.0507,-0.2875
09-Sep-2020 11:04:44.958, 0.2229, 0.0132,-0.5694, 2.0870, 0.7060,-1.9197, 0.6788, 0.0564,-0.3132
09-Sep-2020 11:04:44.968, 0.2567, 0.0288,-0.5157, 2.0582, 1.1053,-2.2291, 0.6874, 0.0605,-0.3411
09-Sep-2020 11:04:44.978, 0.3358,-0.0106,-0.4178, 1.9027, 1.4650,-2.4902, 0.7003, 0.0621,-0.3711
09-Sep-2020 11:04:44.988, 0.4582,-0.1531,-0.2437, 1.5417, 1.7967,-2.6213, 0.7167, 0.0603,-0.4021
09-Sep-2020 11:04:44.998, 0.6600,-0.2485,-0.0140, 0.9911, 2.1697,-2.6096, 0.7363, 0.0545,-0.4316
09-Sep-2020 11:04:45.008, 0.9494,-0.2663, 0.0996, 0.3274, 2.5448,-2.3826, 0.7592, 0.0442,-0.4571
09-Sep-2020 11:04:45.018, 1.1376,-0.2620, 0.0618,-0.4174, 2.7018,-2.0341, 0.7852, 0.0301,-0.4762
09-Sep-2020 11:04:45.028, 1.3137,-0.2228,-0.2663,-0.9684, 2.3520,-1.5944, 0.8120, 0.0129,-0.4873
09-Sep-2020 11:04:45.038, 1.2391,-0.1190,-0.5623,-1.1295, 1.6789,-1.1852, 0.8352,-0.0050,-0.4911
09-Sep-2020 11:04:45.048, 0.9708, 0.0238,-0.5885,-1.1553, 1.2006,-1.0681, 0.8520,-0.0213,-0.4906
09-Sep-2020 11:04:45.058, 0.8231, 0.1136,-0.6256,-1.1952, 0.8815,-1.1404, 0.8641,-0.0369,-0.4889
09-Sep-2020 11:04:45.067, 0.7762, 0.1678,-0.6373,-1.2510, 0.6093,-1.1732, 0.8730,-0.0532,-0.4870
09-Sep-2020 11:04:45.078, 0.7066, 0.1914,-0.5858,-1.3131, 0.5013,-1.1940, 0.8793,-0.0700,-0.4848
09-Sep-2020 11:04:45.087, 0.6133, 0.1984,-0.5126,-1.3958, 0.5684,-1.2280, 0.8846,-0.0874,-0.4822
09-Sep-2020 11:04:45.097, 0.5442, 0.2094,-0.4939,-1.4663, 0.7202,-1.3285, 0.8906,-0.1056,-0.4790
09-Sep-2020 11:04:45.107, 0.5228, 0.1932,-0.5104,-1.4516, 0.8846,-1.4680, 0.8981,-0.1250,-0.4759
09-Sep-2020 11:04:45.118, 0.5665, 0.1787,-0.5284,-1.4124, 1.0122,-1.6504, 0.9072,-0.1454,-0.4735
09-Sep-2020 11:04:45.127, 0.6583, 0.2000,-0.5718,-1.3763, 1.0147,-1.6718, 0.9174,-0.1668,-0.4724
09-Sep-2020 11:04:45.137, 0.7384, 0.2167,-0.6575,-1.2789, 0.9524,-1.5107, 0.9276,-0.1882,-0.4714
09-Sep-2020 11:04:45.147, 0.7985, 0.2145,-0.7627,-1.0859, 0.8968,-1.2700, 0.9373,-0.2077,-0.4700
09-Sep-2020 11:04:45.157, 0.8323, 0.2112,-0.8265,-0.8286, 0.7145,-1.0254, 0.9464,-0.2242,-0.4686
09-Sep-2020 11:04:45.167, 0.7588, 0.2272,-0.7467,-0.6700, 0.4877,-0.9372, 0.9537,-0.2373,-0.4678
09-Sep-2020 11:04:45.177, 0.6399, 0.2464,-0.5866,-0.7254, 0.2821,-1.0460, 0.9585,-0.2488,-0.4676
09-Sep-2020 11:04:45.187, 0.6083, 0.2457,-0.4243,-0.9610, 0.1167,-1.2395, 0.9614,-0.2615,-0.4675
09-Sep-2020 11:04:45.197, 0.5954, 0.2474,-0.2937,-1.2883, 0.0440,-1.3812, 0.9628,-0.2770,-0.4665
09-Sep-2020 11:04:45.207, 0.5959, 0.2729,-0.2448,-1.6250, 0.1732,-1.5039, 0.9642,-0.2956,-0.4636
09-Sep-2020 11:04:45.217, 0.6239, 0.3096,-0.3150,-1.8132, 0.3413,-1.5905, 0.9674,-0.3169,-0.4586
09-Sep-2020 11:04:45.227, 0.6169, 0.3684,-0.3888,-1.8282, 0.5245,-1.7453, 0.9728,-0.3401,-0.4524
09-Sep-2020 11:04:45.237, 0.5853, 0.4492,-0.4302,-1.7320, 0.7011,-1.9974, 0.9799,-0.3646,-0.4467
09-Sep-2020 11:04:45.247, 0.5260, 0.5161,-0.4296,-1.6063, 0.8319,-2.2777, 0.9882,-0.3906,-0.4431
09-Sep-2020 11:04:45.257, 0.4638, 0.5025,-0.3294,-1.6426, 0.9748,-2.2960, 0.9969,-0.4182,-0.4418
09-Sep-2020 11:04:45.267, 0.3121, 0.4813,-0.3340,-1.7292, 1.3058,-2.2724, 1.0074,-0.4461,-0.4401
09-Sep-2020 11:04:45.277, 0.4458, 0.4510,-0.4397,-1.6252, 1.6975,-2.2729, 1.0217,-0.4743,-0.4371
09-Sep-2020 11:04:45.286, 0.7480, 0.4886,-0.4608,-1.2316, 2.2461,-2.2095, 1.0399,-0.5018,-0.4347
09-Sep-2020 11:04:45.297, 0.8558, 0.5645,-0.6685,-0.6626, 2.2529,-2.1002, 1.0616,-0.5268,-0.4351
09-Sep-2020 11:04:45.307, 0.8438, 0.6355,-0.6690,-0.1403, 1.8706,-1.9830, 1.0812,-0.5482,-0.4399
09-Sep-2020 11:04:45.316, 0.9356, 0.6233,-0.4716, 0.0934, 1.6212,-1.8599, 1.0951,-0.5664,-0.4490
09-Sep-2020 11:04:45.326, 1.0869, 0.5529,-0.3253,-0.0071, 1.2911,-1.7016, 1.1053,-0.5825,-0.4597
09-Sep-2020 11:04:45.336, 1.0758, 0.4502,-0.2986,-0.3482, 0.6506,-1.5597, 1.1131,-0.5976,-0.4685
09-Sep-2020 11:04:45.346, 1.0157, 0.4162,-0.2921,-0.7171,-0.2780,-1.5003, 1.1168,-0.6131,-0.4729
09-Sep-2020 11:04:45.356, 0.9512, 0.4385,-0.2615,-1.0064,-1.1935,-1.5331, 1.1138,-0.6296,-0.4732
09-Sep-2020 11:04:45.366, 0.9821, 0.4004,-0.4042,-1.0966,-2.1038,-1.5483, 1.1035,-0.6476,-0.4705
09-Sep-2020 11:04:45.376, 0.9344, 0.3886,-0.1675,-1.1051,-2.5483,-1.3937, 1.0848,-0.6660,-0.4671
09-Sep-2020 11:04:45.386, 0.8213, 0.4092,-0.0354,-1.2086,-2.2942,-1.1865, 1.0624,-0.6834,-0.4631
09-Sep-2020 11:04:45.397, 0.7007, 0.4312,-0.0520,-1.2311,-1.9533,-0.9791, 1.0434,-0.6995,-0.4571
09-Sep-2020 11:04:45.406, 0.5790, 0.4595, 0.0025,-1.3069,-1.4610,-0.8253, 1.0288,-0.7141,-0.4497
09-Sep-2020 11:04:45.416, 0.5368, 0.5291,-0.0253,-1.4294,-0.9921,-0.6607, 1.0203,-0.7278,-0.4405
09-Sep-2020 11:04:45.426, 0.4992, 0.6665,-0.1522,-1.4505,-0.6663,-0.5075, 1.0181,-0.7407,-0.4288
09-Sep-2020 11:04:45.439, 0.4599, 0.7322,-0.2381,-1.3436,-0.3179,-0.3308, 1.0204,-0.7525,-0.4157
09-Sep-2020 11:04:45.446, 0.4159, 0.7850,-0.3446,-1.1213, 0.1855,-0.2648, 1.0265,-0.7622,-0.4024
09-Sep-2020 11:04:45.456, 0.3625, 0.8605,-0.4654,-0.8626, 0.6394,-0.3993, 1.0362,-0.7702,-0.3910
09-Sep-2020 11:04:45.465, 0.3722, 0.9377,-0.6401,-0.6340, 0.7861,-0.6839, 1.0476,-0.7780,-0.3834
09-Sep-2020 11:04:45.475, 0.4541, 1.0003,-0.7794,-0.3573, 0.7215,-1.0171, 1.0573,-0.7870,-0.3805
09-Sep-2020 11:04:45.486, 0.5959, 0.9862,-0.7840,-0.1058, 0.7186,-1.2584, 1.0627,-0.7974,-0.3830
09-Sep-2020 11:04:45.496, 0.6774, 0.9290,-0.6793, 0.0273, 0.7071,-1.3519, 1.0646,-0.8087,-0.3902
09-Sep-2020 11:04:45.505, 0.7509, 0.8676,-0.5782,-0.0126, 0.5675,-1.3544, 1.0646,-0.8203,-0.3999
09-Sep-2020 11:04:45.515, 0.7820, 0.8106,-0.4782,-0.1734, 0.3017,-1.3130, 1.0632,-0.8321,-0.4092
09-Sep-2020 11:04:45.525, 0.8217, 0.7534,-0.3670,-0.4043, 0.1208,-1.2934, 1.0609,-0.8443,-0.4163
09-Sep-2020 11:04:45.536, 0.8535, 0.7458,-0.2975,-0.5957, 0.1397,-1.2246, 1.0591,-0.8573,-0.4205
09-Sep-2020 11:04:45.545, 0.8210, 0.8227,-0.3071,-0.6716, 0.3950,-1.0216, 1.0597,-0.8707,-0.4217
09-Sep-2020 11:04:45.555, 0.7333, 0.9127,-0.3266,-0.6119, 0.7787,-0.7751, 1.0647,-0.8827,-0.4203
09-Sep-2020 11:04:45.565, 0.6404, 0.9508,-0.3429,-0.4741, 1.2087,-0.5994, 1.0744,-0.8923,-0.4178
09-Sep-2020 11:04:45.575, 0.6049, 0.9136,-0.3061,-0.2983, 1.5344,-0.5325, 1.0880,-0.8998,-0.4157
09-Sep-2020 11:04:45.585, 0.6205, 0.8381,-0.2404,-0.1930, 1.5017,-0.5575, 1.1033,-0.9058,-0.4153
09-Sep-2020 11:04:45.595, 0.6170, 0.7898,-0.1759,-0.1429, 1.2547,-0.6760, 1.1172,-0.9116,-0.4164
09-Sep-2020 11:04:45.605, 0.6213, 0.7666,-0.1435,-0.0736, 0.7703,-0.8024, 1.1273,-0.9182,-0.4191
09-Sep-2020 11:04:45.615, 0.5838, 0.7253,-0.1021, 0.0301, 0.4140,-0.9507, 1.1314,-0.9257,-0.4236
09-Sep-2020 11:04:45.625, 0.5300, 0.6663,-0.0974, 0.1367, 0.1740,-1.0783, 1.1298,-0.9340,-0.4307
09-Sep-2020 11:04:45.635, 0.4826, 0.6589,-0.0780, 0.1710, 0.0437,-1.1333, 1.1237,-0.9430,-0.4405
09-Sep-2020 11:04:45.645, 0.4500, 0.6460,-0.0899, 0.1274, 0.0740,-1.1108, 1.1153,-0.9523,-0.4514
09-Sep-2020 11:04:45.655, 0.4187, 0.6862,-0.1665, 0.0708, 0.4765,-1.0752, 1.1079,-0.9616,-0.4618
09-Sep-2020 11:04:45.665, 0.4090, 0.8279,-0.2552,-0.0158, 0.6329,-1.0837, 1.1046,-0.9708,-0.4713
09-Sep-2020 11:04:45.675, 0.3595, 0.8901,-0.3488, 0.0040, 0.4999,-1.1615, 1.1036,-0.9805,-0.4798
09-Sep-2020 11:04:45.685, 0.3300, 0.9034,-0.3210, 0.0654, 0.3566,-1.2814, 1.1007,-0.9907,-0.4893
09-Sep-2020 11:04:45.695, 0.2870, 0.8705,-0.2540, 0.0232, 0.4257,-1.4416, 1.0948,-1.0017,-0.5010
09-Sep-2020 11:04:45.705, 0.2493, 0.8045,-0.2758,-0.0703, 0.3087,-1.5730, 1.0881,-1.0143,-0.5136
09-Sep-2020 11:04:45.715, 0.2525, 0.7281,-0.3202,-0.0647, 0.1191,-1.5693, 1.0801,-1.0282,-0.5265
09-Sep-2020 11:04:45.724, 0.2822, 0.6803,-0.2751,-0.0092, 0.0876,-1.4219, 1.0698,-1.0421,-0.5399
09-Sep-2020 11:04:45.734, 0.3518, 0.6952,-0.1969,-0.0609, 0.2070,-1.1723, 1.0591,-1.0544,-0.5532
09-Sep-2020 11:04:45.744, 0.4111, 0.7496,-0.1653,-0.2559, 0.4866,-0.9363, 1.0521,-1.0648,-0.5637
09-Sep-2020 11:04:45.754, 0.4267, 0.8049,-0.1772,-0.5497, 0.8221,-0.8224, 1.0527,-1.0742,-0.5686
09-Sep-2020 11:04:45.764, 0.4391, 0.8881,-0.2347,-0.8339, 1.0842,-0.7776, 1.0622,-1.0839,-0.5670
09-Sep-2020 11:04:45.774, 0.3909, 0.9035,-0.2198,-1.1268, 1.1196,-0.7863, 1.0796,-1.0946,-0.5592
09-Sep-2020 11:04:45.784, 0.3781, 0.8758,-0.2595,-1.3280, 1.1220,-0.9283, 1.1031,-1.1067,-0.5454
09-Sep-2020 11:04:45.794, 0.4662, 0.8785,-0.2430,-1.4025, 1.0334,-1.0484, 1.1301,-1.1207,-0.5277
09-Sep-2020 11:04:45.804, 0.5183, 0.9155,-0.1853,-1.3974, 0.7650,-1.0537, 1.1577,-1.1358,-0.5081
09-Sep-2020 11:04:45.814, 0.4539, 0.8683,-0.0154,-1.4478, 0.7457,-1.0988, 1.1848,-1.1509,-0.4869
09-Sep-2020 11:04:45.824, 0.4495, 0.8395,-0.1488,-1.3929, 0.7151,-1.1568, 1.2136,-1.1662,-0.4635
09-Sep-2020 11:04:45.834, 0.5408, 0.8823,-0.2020,-1.1608, 0.3959,-1.0436, 1.2420,-1.1814,-0.4399
09-Sep-2020 11:04:45.844, 0.3548, 0.8108, 0.1782,-1.2946, 0.2115,-1.0598, 1.2658,-1.1949,-0.4184
09-Sep-2020 11:04:45.854, 0.3503, 0.8459, 0.0664,-1.5282, 0.5317,-1.2180, 1.2927,-1.2088,-0.3920
09-Sep-2020 11:04:45.863, 0.4148, 0.9725,-0.0837,-1.5231, 0.5913,-1.0884, 1.3286,-1.2242,-0.3586
09-Sep-2020 11:04:45.874, 0.3463, 0.9559,-0.0536,-1.4605, 0.7345,-0.9249, 1.3695,-1.2380,-0.3212
09-Sep-2020 11:04:45.884, 0.3112, 0.9757,-0.0723,-1.3153, 0.8724,-0.7286, 1.4138,-1.2495,-0.2817
09-Sep-2020 11:04:45.894, 0.2766, 1.0069,-0.0586,-1.0750, 0.9171,-0.5652, 1.4587,-1.2584,-0.2432
09-Sep-2020 11:04:45.904, 0.2688, 1.0172, 0.0410,-0.8802, 0.8717,-0.5368, 1.4995,-1.2650,-0.2094
09-Sep-2020 11:04:45.914, 0.2983, 1.0194, 0.0640,-0.7087, 0.7471,-0.5635, 1.5351,-1.2708,-0.1807
09-Sep-2020 11:04:45.923, 0.3176, 1.0780, 0.0377,-0.5129, 0.5738,-0.5841, 1.5650,-1.2764,-0.1567
09-Sep-2020 11:04:45.933, 0.3392, 1.1325, 0.0592,-0.3997, 0.5316,-0.5634, 1.5881,-1.2821,-0.1381
09-Sep-2020 11:04:45.944, 0.3591, 1.1482, 0.0401,-0.3188, 0.6125,-0.4421, 1.6075,-1.2875,-0.1230
09-Sep-2020 11:04:45.953, 0.3272, 1.1067, 0.0150,-0.2077, 0.6508,-0.3085, 1.6250,-1.2917,-0.1111
09-Sep-2020 11:04:45.963, 0.2494, 1.0489, 0.0233,-0.0931, 0.6064,-0.2645, 1.6392,-1.2946,-0.1030
09-Sep-2020 11:04:45.973, 0.1567, 1.0113, 0.0381,-0.0070, 0.5883,-0.3095, 1.6492,-1.2971,-0.0989
09-Sep-2020 11:04:45.983, 0.1105, 0.9925, 0.0572, 0.0178, 0.6141,-0.3836, 1.6562,-1.3001,-0.0971
09-Sep-2020 11:04:45.993, 0.1126, 0.9680, 0.0056, 0.0130, 0.5857,-0.4369, 1.6629,-1.3039,-0.0958
09-Sep-2020 11:04:46.003, 0.1538, 0.9810,-0.0182,-0.0036, 0.4692,-0.4631, 1.6696,-1.3081,-0.0941
09-Sep-2020 11:04:46.013, 0.1920, 0.9637,-0.0078,-0.0244, 0.3064,-0.4909, 1.6759,-1.3127,-0.0917
09-Sep-2020 11:04:46.023, 0.2652, 0.9705,-0.0178,-0.0525, 0.1766,-0.4890, 1.6819,-1.3174,-0.0880
09-Sep-2020 11:04:46.033, 0.3427, 1.0208,-0.0337,-0.0643, 0.0393,-0.4327, 1.6876,-1.3221,-0.0831
09-Sep-2020 11:04:46.043, 0.3493, 1.0525, 0.0041,-0.0691, 0.0571,-0.3426, 1.6925,-1.3262,-0.0778
09-Sep-2020 11:04:46.053, 0.3191, 1.0319, 0.0312,-0.0128, 0.2149,-0.1871, 1.6972,-1.3294,-0.0728
09-Sep-2020 11:04:46.063, 0.3529, 1.0366,-0.0418, 0.0521, 0.2843, 0.0517, 1.7005,-1.3310,-0.0709
09-Sep-2020 11:04:46.073, 0.2918, 1.0952,-0.0992, 0.1135, 0.0827, 0.0544, 1.7006,-1.3307,-0.0727
09-Sep-2020 11:04:46.083, 0.2008, 1.0858,-0.0094, 0.2392, 0.0381,-0.0930, 1.6963,-1.3303,-0.0774
09-Sep-2020 11:04:46.093, 0.2682, 1.0358, 0.0525, 0.3253, 0.0015,-0.2437, 1.6875,-1.3315,-0.0862
09-Sep-2020 11:04:46.102, 0.3027, 0.9689, 0.0484, 0.3225,-0.0633,-0.3557, 1.6753,-1.3342,-0.0978
09-Sep-2020 11:04:46.112, 0.2905, 0.9111, 0.0466, 0.2588,-0.1483,-0.3968, 1.6627,-1.3379,-0.1094
09-Sep-2020 11:04:46.122, 0.2761, 0.8868, 0.0372, 0.1566,-0.2117,-0.3880, 1.6516,-1.3420,-0.1186
09-Sep-2020 11:04:46.133, 0.2648, 0.8905, 0.0093, 0.0708,-0.1953,-0.3588, 1.6439,-1.3459,-0.1238
09-Sep-2020 11:04:46.142, 0.2816, 0.9068,-0.0232, 0.0429,-0.1050,-0.2922, 1.6396,-1.3494,-0.1255
09-Sep-2020 11:04:46.152, 0.2993, 0.9276,-0.0546, 0.0766,-0.0157,-0.1952, 1.6372,-1.3523,-0.1263
09-Sep-2020 11:04:46.162, 0.2878, 0.9389,-0.0620, 0.1388, 0.0168,-0.0873, 1.6339,-1.3542,-0.1288
09-Sep-2020 11:04:46.173, 0.2552, 0.9370,-0.0292, 0.1875, 0.0005,-0.0187, 1.6279,-1.3551,-0.1344
09-Sep-2020 11:04:46.182, 0.2247, 0.9275, 0.0033, 0.1933, 0.0006, 0.0064, 1.6194,-1.3553,-0.1424
09-Sep-2020 11:04:46.196, 0.2007, 0.9410,-0.0029, 0.2007, 0.0220, 0.0129, 1.6104,-1.3553,-0.1510
09-Sep-2020 11:04:46.202, 0.1900, 0.9577,-0.0154, 0.2200, 0.0589,-0.0083, 1.6013,-1.3552,-0.1599
09-Sep-2020 11:04:46.212, 0.1915, 0.9749,-0.0123, 0.2187, 0.1019,-0.0532, 1.5917,-1.3552,-0.1697
09-Sep-2020 11:04:46.222, 0.1946, 0.9856, 0.0188, 0.1686, 0.1319,-0.0898, 1.5828,-1.3557,-0.1793
09-Sep-2020 11:04:46.232, 0.2054, 0.9908, 0.0479, 0.0846, 0.1351,-0.1249, 1.5764,-1.3566,-0.1866
09-Sep-2020 11:04:46.242, 0.2066, 0.9951, 0.0479, 0.0093, 0.1867,-0.1439, 1.5737,-1.3578,-0.1902
09-Sep-2020 11:04:46.252, 0.1827, 1.0158, 0.0272,-0.0581, 0.3090,-0.1184, 1.5751,-1.3591,-0.1902
09-Sep-2020 11:04:46.262, 0.1212, 1.0428,-0.0145,-0.0708, 0.3811,-0.0845, 1.5805,-1.3602,-0.1871
09-Sep-2020 11:04:46.272, 0.0591, 1.0463,-0.0360,-0.0305, 0.4092,-0.1278, 1.5872,-1.3610,-0.1834
09-Sep-2020 11:04:46.282, 0.0575, 1.0386,-0.0365, 0.0398, 0.4332,-0.2278, 1.5926,-1.3622,-0.1815
09-Sep-2020 11:04:46.292, 0.0895, 1.0167,-0.0228, 0.0985, 0.4549,-0.2983, 1.5951,-1.3644,-0.1826
09-Sep-2020 11:04:46.301, 0.1342, 0.9903, 0.0004, 0.1083, 0.4710,-0.3315, 1.5953,-1.3673,-0.1864
09-Sep-2020 11:04:46.312, 0.1696, 0.9887, 0.0317, 0.0619, 0.4473,-0.3406, 1.5951,-1.3706,-0.1908
09-Sep-2020 11:04:46.321, 0.1803, 1.0294, 0.0600,-0.0096, 0.4313,-0.3308, 1.5969,-1.3739,-0.1930
09-Sep-2020 11:04:46.331, 0.1671, 1.0534, 0.0574,-0.0677, 0.4400,-0.3241, 1.6019,-1.3771,-0.1916
09-Sep-2020 11:04:46.341, 0.1398, 1.0320, 0.0316,-0.1105, 0.4521,-0.3161, 1.6101,-1.3802,-0.1872
09-Sep-2020 11:04:46.351, 0.0994, 1.0236, 0.0272,-0.1437, 0.5008,-0.3192, 1.6209,-1.3833,-0.1802
09-Sep-2020 11:04:46.361, 0.0868, 1.0308, 0.0485,-0.1488, 0.6028,-0.3524, 1.6341,-1.3863,-0.1713
09-Sep-2020 11:04:46.371, 0.1082, 1.0079, 0.0638,-0.1610, 0.7074,-0.3999, 1.6492,-1.3897,-0.1614
09-Sep-2020 11:04:46.381, 0.1302, 0.9701, 0.0933,-0.2171, 0.8007,-0.4278, 1.6668,-1.3934,-0.1501
09-Sep-2020 11:04:46.391, 0.1613, 0.9447, 0.0965,-0.3015, 0.9059,-0.4396, 1.6894,-1.3973,-0.1346
09-Sep-2020 11:04:46.401, 0.1677, 0.9250, 0.0372,-0.3381, 0.9511,-0.4334, 1.7185,-1.4012,-0.1136
09-Sep-2020 11:04:46.412, 0.1895, 0.9130, 0.0222,-0.3504, 1.0001,-0.3803, 1.7514,-1.4048,-0.0892
09-Sep-2020 11:04:46.421, 0.2064, 0.8962, 0.0114,-0.3528, 1.0588,-0.2744, 1.7860,-1.4078,-0.0636
09-Sep-2020 11:04:46.431, 0.2217, 0.8961,-0.0094,-0.3430, 1.0380,-0.1498, 1.8207,-1.4095,-0.0383
09-Sep-2020 11:04:46.441, 0.2630, 0.9320,-0.0249,-0.3364, 0.9164,-0.0416, 1.8534,-1.4100,-0.0150
09-Sep-2020 11:04:46.451, 0.3115, 0.9726,-0.0253,-0.3079, 0.6991, 0.0285, 1.8825,-1.4094, 0.0061
09-Sep-2020 11:04:46.461, 0.3408, 1.0102,-0.0139,-0.2619, 0.4610, 0.1259, 1.9061,-1.4081, 0.0237
09-Sep-2020 11:04:46.471, 0.3231, 1.0224, 0.0017,-0.2343, 0.2367, 0.2433, 1.9226,-1.4060, 0.0366
09-Sep-2020 11:04:46.481, 0.2916, 1.0141, 0.0105,-0.2172, 0.0811, 0.3564, 1.9326,-1.4028, 0.0451
09-Sep-2020 11:04:46.491, 0.2864, 1.0129, 0.0057,-0.1897,-0.0345, 0.4994, 1.9374,-1.3987, 0.0500
09-Sep-2020 11:04:46.500, 0.2872, 1.0145,-0.0076,-0.1365,-0.1256, 0.6485, 1.9366,-1.3933, 0.0504
09-Sep-2020 11:04:46.511, 0.2833, 1.0080,-0.0163,-0.0583,-0.1978, 0.7802, 1.9295,-1.3868, 0.0452
09-Sep-2020 11:04:46.521, 0.2747, 0.9855,-0.0173, 0.0373,-0.2342, 0.9087, 1.9159,-1.3792, 0.0341
09-Sep-2020 11:04:46.530, 0.2605, 0.9550,-0.0116, 0.1505,-0.2527, 1.0317, 1.8963,-1.3708, 0.0173
09-Sep-2020 11:04:46.541, 0.2411, 0.9310,-0.0011, 0.2397,-0.2839, 1.1100, 1.8715,-1.3614,-0.0047
09-Sep-2020 11:04:46.550, 0.2109, 0.8873, 0.0099, 0.3015,-0.3071, 1.1384, 1.8436,-1.3515,-0.0295
09-Sep-2020 11:04:46.560, 0.1758, 0.8329, 0.0086, 0.3731,-0.3607, 1.0993, 1.8149,-1.3413,-0.0550
09-Sep-2020 11:04:46.570, 0.1411, 0.7746, 0.0050, 0.4449,-0.4559, 0.9865, 1.7855,-1.3315,-0.0808
09-Sep-2020 11:04:46.580, 0.1066, 0.7042, 0.0077, 0.4928,-0.5631, 0.8019, 1.7555,-1.3227,-0.1063
09-Sep-2020 11:04:46.591, 0.0670, 0.6196, 0.0187, 0.4789,-0.6731, 0.5382, 1.7258,-1.3157,-0.1304
09-Sep-2020 11:04:46.600, 0.0244, 0.5349, 0.0291, 0.3615,-0.7975, 0.1878, 1.6985,-1.3110,-0.1511
09-Sep-2020 11:04:46.610,-0.0132, 0.5050, 0.0711, 0.3296,-1.0324,-0.2180, 1.6759,-1.3096,-0.1655
09-Sep-2020 11:04:46.620,-0.0433, 0.4770, 0.1733, 0.0978,-0.9149,-0.7452, 1.6563,-1.3122,-0.1752
09-Sep-2020 11:04:46.631,-0.0388, 0.2741, 0.1871, 0.0582,-1.2242,-1.1114, 1.6435,-1.3195,-0.1779
09-Sep-2020 11:04:46.640,-0.0163, 0.2400, 0.5072,-0.7055,-1.2932,-1.4165, 1.6344,-1.3305,-0.1744
09-Sep-2020 11:04:46.650, 0.0230, 0.0780, 0.2605,-1.3256,-1.3234,-1.4304, 1.6549,-1.3438,-0.1395
09-Sep-2020 11:04:46.660,-0.0653, 0.1361, 0.2447,-1.6642,-1.2456,-1.3999, 1.7067,-1.3565,-0.0725
09-Sep-2020 11:04:46.670,-0.3791, 0.4005, 0.5299,-2.2447, 0.0383,-1.8809, 1.7849,-1.3675, 0.0198
09-Sep-2020 11:04:46.680, 0.0496, 0.3100, 0.1701,-2.0167, 0.2714,-1.8374, 1.9097,-1.3787, 0.1489
09-Sep-2020 11:04:46.690,-0.0119, 0.6145,-0.1857,-1.9338, 0.2162,-1.7943, 2.0530,-1.3866, 0.2927
09-Sep-2020 11:04:46.700,-0.0159, 0.8138,-0.4415,-0.7939, 0.1826,-1.9034, 2.1937,-1.3919, 0.4340
09-Sep-2020 11:04:46.710,-0.1520, 1.6543,-0.1946,-0.5668,-0.0011,-2.1291, 2.3003,-1.4014, 0.5408
09-Sep-2020 11:04:46.719,-0.1260, 3.3037, 0.0408,-0.2605,-0.7082,-2.8919, 2.4112,-1.4138, 0.6541
09-Sep-2020 11:04:46.731, 0.4940, 4.4354, 0.8561,-1.4151, 0.2050,-3.2746, 2.5721,-1.4285, 0.8220
09-Sep-2020 11:04:46.740, 0.4081, 3.9078, 0.5070,-1.9494, 1.4526,-3.0326, 2.8204,-1.4302, 1.0710
09-Sep-2020 11:04:46.750, 0.2746, 2.6524,-0.2699,-1.1161, 1.7648,-2.5302, 3.0563,-1.4181, 1.2966
09-Sep-2020 11:04:46.761, 0.1277, 1.5815,-0.2532, 0.0239, 1.6920,-2.1468,-3.0519,-1.4071, 1.4562
09-Sep-2020 11:04:46.769, 0.0291, 1.0272,-0.1741, 0.8006, 1.4389,-1.9696,-2.9082,-1.4037, 1.5853
09-Sep-2020 11:04:46.779, 0.0426, 0.7134,-0.1284, 1.1898, 1.0739,-1.7711,-2.7693,-1.4053, 1.7121
09-Sep-2020 11:04:46.789, 0.0117, 0.5318,-0.1125, 1.3059, 0.5313,-1.5658,-2.6325,-1.4084, 1.8407
09-Sep-2020 11:04:46.799,-0.0009, 0.4105,-0.1171, 1.1946,-0.1777,-1.3418,-2.5040,-1.4108, 1.9662
09-Sep-2020 11:04:46.809, 0.0204, 0.3416,-0.0786, 0.9926,-0.8049,-1.0248,-2.3954,-1.4115, 2.0787
09-Sep-2020 11:04:46.819,-0.0242, 0.3483,-0.0445, 0.7201,-1.3094,-0.7117,-2.3153,-1.4113, 2.1686
09-Sep-2020 11:04:46.829,-0.0586, 0.3878, 0.0641, 0.4322,-1.5703,-0.4196,-2.2660,-1.4108, 2.2323
09-Sep-2020 11:04:46.839,-0.0929, 0.4716, 0.2800, 0.4272,-0.8857,-0.0823,-2.2434,-1.4105, 2.2711
09-Sep-2020 11:04:46.849,-0.1896, 0.6243, 0.5055, 0.4449, 0.4916, 0.1897,-2.2282,-1.4124, 2.2957
09-Sep-2020 11:04:46.859,-0.2318, 0.7717, 0.4308, 0.4223, 2.1626, 0.2991,-2.2074,-1.4166, 2.3116
09-Sep-2020 11:04:46.869,-0.1924, 0.8916, 0.1333, 0.5179, 2.8622, 0.4268,-2.1750,-1.4216, 2.3233
09-Sep-2020 11:04:46.879,-0.2384, 1.0957, 0.0351, 0.4124, 2.8991, 0.4193,-2.1342,-1.4279, 2.3363
09-Sep-2020 11:04:46.889,-0.2579, 1.2516,-0.0659, 0.2320, 2.5663, 0.3175,-2.0961,-1.4336, 2.3458
09-Sep-2020 11:04:46.899,-0.2867, 1.3660,-0.0691, 0.1371, 2.0713, 0.1283,-2.0667,-1.4375, 2.3502
09-Sep-2020 11:04:46.909,-0.3007, 1.3695, 0.0495, 0.1932, 1.7072,-0.0942,-2.0406,-1.4394, 2.3562
09-Sep-2020 11:04:46.919,-0.2696, 1.2307, 0.1883, 0.3033, 1.4366,-0.2368,-2.0072,-1.4395, 2.3733
09-Sep-2020 11:04:46.929,-0.2248, 1.0827, 0.2644, 0.2428, 1.0972,-0.3061,-1.9659,-1.4387, 2.4012
09-Sep-2020 11:04:46.939,-0.2056, 0.9991, 0.2319, 0.0736, 0.6125,-0.3583,-1.9305,-1.4368, 2.4268
09-Sep-2020 11:04:46.948,-0.1732, 0.9462, 0.1759,-0.0798, 0.0488,-0.3883,-1.9103,-1.4338, 2.4418
09-Sep-2020 11:04:46.958,-0.1543, 0.9166, 0.1369,-0.1928,-0.4392,-0.3275,-1.9060,-1.4300, 2.4465
09-Sep-2020 11:04:46.968,-0.1764, 0.9197, 0.1053,-0.2454,-0.6698,-0.1982,-1.9151,-1.4264, 2.4424
09-Sep-2020 11:04:46.978,-0.2092, 0.9465, 0.0625,-0.2253,-0.6989,-0.1258,-1.9322,-1.4237, 2.4326
09-Sep-2020 11:04:46.988,-0.2120, 0.9581, 0.0172,-0.1498,-0.6596,-0.1075,-1.9497,-1.4218, 2.4227
09-Sep-2020 11:04:46.998,-0.1954, 0.9689,-0.0023,-0.0736,-0.6552,-0.0825,-1.9628,-1.4204, 2.4170
09-Sep-2020 11:04:47.008,-0.1918, 0.9934, 0.0084,-0.0407,-0.6551,-0.0528,-1.9718,-1.4194, 2.4152
09-Sep-2020 11:04:47.018,-0.1881, 0.9897, 0.0150,-0.0513,-0.6778,-0.0334,-1.9795,-1.4188, 2.4148
09-Sep-2020 11:04:47.029,-0.1828, 0.9705, 0.0320,-0.0816,-0.6490,-0.0149,-1.9884,-1.4184, 2.4133
09-Sep-2020 11:04:47.039,-0.1823, 0.9635, 0.0469,-0.0987,-0.5763,-0.0208,-1.9991,-1.4180, 2.4097
09-Sep-2020 11:04:47.048,-0.1812, 0.9607, 0.0611,-0.0988,-0.4811,-0.0423,-2.0099,-1.4174, 2.4051
09-Sep-2020 11:04:47.058,-0.1820, 0.9664, 0.0629,-0.0725,-0.4043,-0.0628,-2.0192,-1.4167, 2.4012
09-Sep-2020 11:04:47.068,-0.1856, 0.9755, 0.0550,-0.0332,-0.3274,-0.0463,-2.0258,-1.4159, 2.3992
09-Sep-2020 11:04:47.078,-0.1891, 0.9610, 0.0424, 0.0590,-0.3474,-0.0471,-2.0293,-1.4155, 2.3996
09-Sep-2020 11:04:47.088,-0.1824, 0.9597, 0.0617, 0.1144,-0.3993,-0.0291,-2.0283,-1.4154, 2.4046
09-Sep-2020 11:04:47.098,-0.1785, 0.9684, 0.0782, 0.1149,-0.4278,-0.0266,-2.0251,-1.4157, 2.4124
09-Sep-2020 11:04:47.108,-0.1772, 0.9856, 0.0801, 0.0829,-0.4386,-0.0685,-2.0220,-1.4160, 2.4203
09-Sep-2020 11:04:47.118,-0.1678, 0.9808, 0.0793, 0.0496,-0.4638,-0.0923,-2.0198,-1.4158, 2.4276
09-Sep-2020 11:04:47.128,-0.1702, 0.9795, 0.0803, 0.0180,-0.4657,-0.1081,-2.0189,-1.4153, 2.4335
09-Sep-2020 11:04:47.138,-0.1665, 0.9899, 0.0801, 0.0058,-0.4396,-0.1209,-2.0194,-1.4145, 2.4381
09-Sep-2020 11:04:47.148,-0.1557, 0.9904, 0.0831, 0.0047,-0.3882,-0.1162,-2.0201,-1.4135, 2.4422
09-Sep-2020 11:04:47.157,-0.1419, 0.9786, 0.0781, 0.0324,-0.3753,-0.1098,-2.0205,-1.4126, 2.4460
09-Sep-2020 11:04:47.168,-0.1249, 0.9693, 0.0807, 0.0632,-0.4069,-0.0979,-2.0196,-1.4118, 2.4512
09-Sep-2020 11:04:47.177,-0.1287, 0.9641, 0.0733, 0.0833,-0.4499,-0.0704,-2.0176,-1.4113, 2.4576
09-Sep-2020 11:04:47.187,-0.1351, 0.9355, 0.0555, 0.1304,-0.5601,-0.0415,-2.0156,-1.4111, 2.4646
09-Sep-2020 11:04:47.197,-0.1484, 0.9540, 0.0688, 0.1460,-0.6932,-0.0182,-2.0128,-1.4113, 2.4733
09-Sep-2020 11:04:47.208,-0.1746, 1.0120, 0.1060, 0.0736,-0.7512,-0.0246,-2.0113,-1.4118, 2.4819
09-Sep-2020 11:04:47.217,-0.1980, 1.0391, 0.1253,-0.0742,-0.6556,-0.0687,-2.0141,-1.4119, 2.4868
09-Sep-2020 11:04:47.227,-0.1856, 1.0388, 0.0947,-0.2131,-0.4681,-0.1122,-2.0229,-1.4111, 2.4845
09-Sep-2020 11:04:47.237,-0.1700, 1.0377, 0.0598,-0.2574,-0.2242,-0.1358,-2.0360,-1.4093, 2.4760
09-Sep-2020 11:04:47.247,-0.1457, 1.0248, 0.0349,-0.1770, 0.0061,-0.1576,-2.0478,-1.4070, 2.4663
09-Sep-2020 11:04:47.257,-0.1092, 0.9850, 0.0006,-0.1734, 0.0787,-0.1172,-2.0532,-1.4049, 2.4609
09-Sep-2020 11:04:47.267,-0.0999, 0.9548, 0.0249,-0.5037,-0.2175,-0.1108,-2.0607,-1.4029, 2.4531
09-Sep-2020 11:04:47.277,-0.1110, 0.9510, 0.1084,-0.5183,-0.0374,-0.1124,-2.0838,-1.3998, 2.4316
09-Sep-2020 11:04:47.287,-0.1196, 0.9648, 0.0914,-0.4109, 0.1574,-0.0718,-2.1065,-1.3964, 2.4090
09-Sep-2020 11:04:47.297,-0.1475, 0.9838, 0.0553,-0.3247, 0.1040,-0.0413,-2.1229,-1.3937, 2.3910
09-Sep-2020 11:04:47.307,-0.1678, 0.9934, 0.0785,-0.2440, 0.0023,-0.0345,-2.1359,-1.3917, 2.3768
09-Sep-2020 11:04:47.317,-0.1683, 0.9919, 0.1340,-0.1791, 0.0479,-0.0357,-2.1462,-1.3901, 2.3663
09-Sep-2020 11:04:47.327,-0.1660, 0.9603, 0.1627,-0.1006, 0.2571,-0.0585,-2.1527,-1.3890, 2.3591
09-Sep-2020 11:04:47.337,-0.1568, 0.9449, 0.1374, 0.0020, 0.4729,-0.1404,-2.1528,-1.3880, 2.3565
09-Sep-2020 11:04:47.347,-0.1553, 0.9682, 0.0974, 0.1670, 0.6263,-0.1437,-2.1440,-1.3870, 2.3607
09-Sep-2020 11:04:47.357,-0.1671, 0.9931, 0.0663, 0.4130, 0.6991,-0.1054,-2.1260,-1.3868, 2.3728
09-Sep-2020 11:04:47.367,-0.1672, 1.0036, 0.0524, 0.6330, 0.5744,-0.0769,-2.0973,-1.3881, 2.3951
09-Sep-2020 11:04:47.376,-0.1700, 1.0158, 0.0755, 0.7293, 0.2285,-0.0643,-2.0601,-1.3905, 2.4273
09-Sep-2020 11:04:47.386,-0.1727, 1.0292, 0.1241, 0.6811,-0.2052,-0.0739,-2.0209,-1.3932, 2.4649
09-Sep-2020 11:04:47.396,-0.1608, 1.0111, 0.1675, 0.5161,-0.5956,-0.0870,-1.9871,-1.3954, 2.5016
09-Sep-2020 11:04:47.406,-0.1481, 0.9909, 0.1682, 0.2984,-0.8904,-0.0842,-1.9645,-1.3968, 2.5307
09-Sep-2020 11:04:47.416,-0.1470, 0.9899, 0.1310, 0.1058,-1.0885,-0.0436,-1.9558,-1.3972, 2.5487
09-Sep-2020 11:04:47.426,-0.1505, 0.9848, 0.0933,-0.0124,-1.2054, 0.0120,-1.9598,-1.3973, 2.5558
09-Sep-2020 11:04:47.437,-0.1681, 0.9805, 0.0833,-0.1082,-1.1942, 0.0409,-1.9725,-1.3975, 2.5550
09-Sep-2020 11:04:47.446,-0.1788, 0.9764, 0.0605,-0.1586,-1.0919, 0.0164,-1.9906,-1.3974, 2.5487
09-Sep-2020 11:04:47.456,-0.1650, 0.9673, 0.0349,-0.1389,-0.9420,-0.0100,-2.0097,-1.3970, 2.5404
09-Sep-2020 11:04:47.466,-0.1639, 0.9590, 0.0125,-0.0816,-0.7941,-0.0141,-2.0259,-1.3965, 2.5336
09-Sep-2020 11:04:47.476,-0.1626, 0.9637,-0.0008,-0.0096,-0.6719,-0.0185,-2.0375,-1.3960, 2.5298
09-Sep-2020 11:04:47.486,-0.1537, 0.9712, 0.0056, 0.0612,-0.5673,-0.0058,-2.0443,-1.3959, 2.5298
09-Sep-2020 11:04:47.496,-0.1452, 0.9803, 0.0235, 0.1006,-0.4716,-0.0047,-2.0469,-1.3962, 2.5330
09-Sep-2020 11:04:47.506,-0.1335, 0.9878, 0.0432, 0.1206,-0.3762,-0.0015,-2.0465,-1.3967, 2.5382
09-Sep-2020 11:04:47.516,-0.1203, 0.9912, 0.0595, 0.1290,-0.2913,-0.0010,-2.0442,-1.3973, 2.5444
09-Sep-2020 11:04:47.526,-0.1090, 0.9933, 0.0725, 0.1350,-0.2123, 0.0053,-2.0406,-1.3979, 2.5511
09-Sep-2020 11:04:47.536,-0.0993, 0.9948, 0.0766, 0.1432,-0.1419, 0.0196,-2.0359,-1.3987, 2.5580
09-Sep-2020 11:04:47.546,-0.0978, 0.9950, 0.0835, 0.1556,-0.0697, 0.0391,-2.0305,-1.3996, 2.5650
09-Sep-2020 11:04:47.556,-0.1056, 0.9975, 0.0897, 0.1490,-0.0328, 0.0460,-2.0242,-1.4007, 2.5722
09-Sep-2020 11:04:47.566,-0.1144, 0.9955, 0.0927, 0.1198,-0.0385, 0.0549,-2.0180,-1.4018, 2.5789
09-Sep-2020 11:04:47.575,-0.1282, 0.9953, 0.0898, 0.0927,-0.0791, 0.0721,-2.0134,-1.4029, 2.5839
09-Sep-2020 11:04:47.586,-0.1446, 0.9955, 0.0846, 0.0700,-0.1608, 0.0815,-2.0112,-1.4040, 2.5871
09-Sep-2020 11:04:47.595,-0.1573, 0.9944, 0.0888, 0.0560,-0.2414, 0.0888,-2.0111,-1.4051, 2.5888
09-Sep-2020 11:04:47.605,-0.1639, 0.9940, 0.0915, 0.0476,-0.3045, 0.0961,-2.0128,-1.4063, 2.5896
09-Sep-2020 11:04:47.615,-0.1658, 0.9930, 0.0909, 0.0450,-0.3489, 0.0955,-2.0157,-1.4074, 2.5898
09-Sep-2020 11:04:47.626,-0.1651, 0.9901, 0.0883, 0.0449,-0.3748, 0.0967,-2.0193,-1.4085, 2.5898
09-Sep-2020 11:04:47.635,-0.1622, 0.9909, 0.0870, 0.0455,-0.3873, 0.0947,-2.0231,-1.4097, 2.5897
09-Sep-2020 11:04:47.645,-0.1582, 0.9896, 0.0826, 0.0440,-0.3940, 0.0913,-2.0270,-1.4108, 2.5897
09-Sep-2020 11:04:47.655,-0.1553, 0.9875, 0.0782, 0.0395,-0.3913, 0.0913,-2.0310,-1.4119, 2.5897
09-Sep-2020 11:04:47.665,-0.1525, 0.9856, 0.0752, 0.0403,-0.3780, 0.0923,-2.0351,-1.4130, 2.5895
09-Sep-2020 11:04:47.675,-0.1541, 0.9844, 0.0717, 0.0367,-0.3572, 0.0953,-2.0392,-1.4140, 2.5892
09-Sep-2020 11:04:47.685,-0.1559, 0.9812, 0.0687, 0.0244,-0.3464, 0.0902,-2.0435,-1.4151, 2.5886
09-Sep-2020 11:04:47.695,-0.1560, 0.9773, 0.0678, 0.0079,-0.3385, 0.0807,-2.0482,-1.4161, 2.5874
09-Sep-2020 11:04:47.705,-0.1561, 0.9736, 0.0671,-0.0091,-0.3354, 0.0686,-2.0534,-1.4169, 2.5855
09-Sep-2020 11:04:47.715,-0.1573, 0.9731, 0.0621,-0.0225,-0.3362, 0.0606,-2.0593,-1.4176, 2.5830
09-Sep-2020 11:04:47.725,-0.1566, 0.9768, 0.0574,-0.0314,-0.3406, 0.0482,-2.0657,-1.4181, 2.5799
09-Sep-2020 11:04:47.735,-0.1562, 0.9834, 0.0541,-0.0346,-0.3482, 0.0431,-2.0724,-1.4185, 2.5766
09-Sep-2020 11:04:47.745,-0.1494, 0.9780, 0.0525,-0.0319,-0.3466, 0.0317,-2.0791,-1.4188, 2.5734
09-Sep-2020 11:04:47.755,-0.1372, 0.9727, 0.0535,-0.0278,-0.3393, 0.0136,-2.0854,-1.4190, 2.5706
09-Sep-2020 11:04:47.765,-0.1230, 0.9734, 0.0551,-0.0160,-0.3221,-0.0001,-2.0907,-1.4190, 2.5686
09-Sep-2020 11:04:47.775,-0.1094, 0.9761, 0.0610,-0.0068,-0.2890,-0.0112,-2.0949,-1.4190, 2.5677
09-Sep-2020 11:04:47.785,-0.0961, 0.9827, 0.0641,-0.0033,-0.2534,-0.0138,-2.0979,-1.4190, 2.5677
09-Sep-2020 11:04:47.795,-0.0801, 0.9933, 0.0617,-0.0009,-0.2292,-0.0020,-2.1002,-1.4189, 2.5679
09-Sep-2020 11:04:47.805,-0.0699, 0.9960, 0.0655, 0.0057,-0.2080, 0.0111,-2.1025,-1.4190, 2.5680
09-Sep-2020 11:04:47.815,-0.0644, 0.9921, 0.0732, 0.0021,-0.1511, 0.0162,-2.1046,-1.4192, 2.5680
09-Sep-2020 11:04:47.824,-0.0628, 0.9883, 0.0712,-0.0204,-0.0789, 0.0098,-2.1066,-1.4194, 2.5675
09-Sep-2020 11:04:47.834,-0.0597, 0.9853, 0.0632,-0.0385,-0.0120, 0.0096,-2.1088,-1.4195, 2.5661
09-Sep-2020 11:04:47.844,-0.0646, 0.9872, 0.0581,-0.0410, 0.0469, 0.0059,-2.1114,-1.4194, 2.5636
09-Sep-2020 11:04:47.854,-0.0740, 0.9876, 0.0590,-0.0346, 0.0975, 0.0079,-2.1134,-1.4193, 2.5611
09-Sep-2020 11:04:47.864,-0.0825, 0.9864, 0.0590,-0.0142, 0.1476, 0.0104,-2.1144,-1.4194, 2.5592
09-Sep-2020 11:04:47.874,-0.0870, 0.9860, 0.0608, 0.0003, 0.1837, 0.0189,-2.1142,-1.4195, 2.5580
09-Sep-2020 11:04:47.884,-0.0911, 0.9870, 0.0655, 0.0080, 0.2032, 0.0228,-2.1131,-1.4198, 2.5573
09-Sep-2020 11:04:47.894,-0.0947, 0.9858, 0.0695, 0.0040, 0.2099, 0.0288,-2.1116,-1.4202, 2.5568
09-Sep-2020 11:04:47.904,-0.1039, 0.9841, 0.0678, 0.0118, 0.2194, 0.0266,-2.1105,-1.4207, 2.5559
09-Sep-2020 11:04:47.914,-0.1124, 0.9847, 0.0667, 0.0202, 0.2319, 0.0237,-2.1089,-1.4211, 2.5553
09-Sep-2020 11:04:47.924,-0.1236, 0.9833, 0.0677, 0.0213, 0.2500, 0.0229,-2.1067,-1.4216, 2.5552
09-Sep-2020 11:04:47.934,-0.1360, 0.9815, 0.0717, 0.0205, 0.2712, 0.0190,-2.1041,-1.4221, 2.5554
09-Sep-2020 11:04:47.944,-0.1483, 0.9785, 0.0802, 0.0149, 0.2877, 0.0067,-2.1011,-1.4226, 2.5558
09-Sep-2020 11:04:47.954,-0.1570, 0.9762, 0.0882, 0.0014, 0.3086, 0.0012,-2.0979,-1.4229, 2.5562
09-Sep-2020 11:04:47.964,-0.1635, 0.9776, 0.0919,-0.0098, 0.3218,-0.0061,-2.0948,-1.4231, 2.5563
09-Sep-2020 11:04:47.973,-0.1663, 0.9815, 0.0910,-0.0262, 0.3339,-0.0163,-2.0921,-1.4231, 2.5558
09-Sep-2020 11:04:47.983,-0.1639, 0.9865, 0.0846,-0.0410, 0.3219,-0.0156,-2.0900,-1.4230, 2.5547
09-Sep-2020 11:04:47.993,-0.1574, 0.9906, 0.0730,-0.0476, 0.2691,-0.0209,-2.0888,-1.4228, 2.5527
09-Sep-2020 11:04:48.003,-0.1473, 0.9929, 0.0606,-0.0414, 0.1850,-0.0249,-2.0883,-1.4225, 2.5506
09-Sep-2020 11:04:48.013,-0.1350, 0.9928, 0.0533,-0.0358, 0.0925,-0.0225,-2.0881,-1.4222, 2.5489
09-Sep-2020 11:04:48.023,-0.1273, 0.9927, 0.0511,-0.0351, 0.0146,-0.0154,-2.0886,-1.4219, 2.5475
09-Sep-2020 11:04:48.034,-0.1234, 0.9913, 0.0485,-0.0318,-0.0311,-0.0071,-2.0898,-1.4217, 2.5462
09-Sep-2020 11:04:48.044,-0.1234, 0.9880, 0.0438,-0.0251,-0.0438, 0.0027,-2.0916,-1.4215, 2.5447
09-Sep-2020 11:04:48.053,-0.1303, 0.9846, 0.0398,-0.0208,-0.0422, 0.0131,-2.0935,-1.4214, 2.5432
09-Sep-2020 11:04:48.063,-0.1385, 0.9801, 0.0437,-0.0120,-0.0220, 0.0196,-2.0954,-1.4215, 2.5417
09-Sep-2020 11:04:48.073,-0.1503, 0.9768, 0.0489, 0.0018, 0.0082, 0.0230,-2.0968,-1.4216, 2.5406
09-Sep-2020 11:04:48.083,-0.1648, 0.9759, 0.0562, 0.0116, 0.0437, 0.0194,-2.0973,-1.4218, 2.5400
09-Sep-2020 11:04:48.093,-0.1753, 0.9777, 0.0658, 0.0165, 0.0741, 0.0113,-2.0967,-1.4221, 2.5403
09-Sep-2020 11:04:48.103,-0.1825, 0.9786, 0.0730, 0.0174, 0.0962, 0.0052,-2.0952,-1.4224, 2.5411
09-Sep-2020 11:04:48.113,-0.1767, 0.9764, 0.0776, 0.0055, 0.0938, 0.0039,-2.0933,-1.4226, 2.5421
09-Sep-2020 11:04:48.123,-0.1696, 0.9781, 0.0775,-0.0046, 0.0728, 0.0069,-2.0920,-1.4228, 2.5425
09-Sep-2020 11:04:48.133,-0.1652, 0.9809, 0.0760,-0.0028, 0.0300, 0.0082,-2.0915,-1.4229, 2.5423
09-Sep-2020 11:04:48.143,-0.1631, 0.9820, 0.0773, 0.0039,-0.0098, 0.0073,-2.0913,-1.4231, 2.5423
09-Sep-2020 11:04:48.153,-0.1643, 0.9848, 0.0801, 0.0101,-0.0500, 0.0065,-2.0911,-1.4232, 2.5426
09-Sep-2020 11:04:48.163,-0.1687, 0.9852, 0.0824, 0.0056,-0.0822, 0.0037,-2.0909,-1.4234, 2.5433
09-Sep-2020 11:04:48.173,-0.1740, 0.9819, 0.0859, 0.0013,-0.1072, 0.0001,-2.0912,-1.4235, 2.5439
09-Sep-2020 11:04:48.183,-0.1780, 0.9805, 0.0893,-0.0076,-0.1177,-0.0046,-2.0918,-1.4236, 2.5444
09-Sep-2020 11:04:48.193,-0.1805, 0.9821, 0.0926,-0.0137,-0.1212,-0.0091,-2.0929,-1.4236, 2.5445
09-Sep-2020 11:04:48.203,-0.1749, 0.9860, 0.0941,-0.0243,-0.1158,-0.0205,-2.0943,-1.4234, 2.5444
09-Sep-2020 11:04:48.212,-0.1647, 0.9887, 0.0921,-0.0280,-0.1277,-0.0257,-2.0959,-1.4231, 2.5439
09-Sep-2020 11:04:48.223,-0.1511, 0.9878, 0.0886,-0.0295,-0.1519,-0.0274,-2.0977,-1.4228, 2.5434
09-Sep-2020 11:04:48.233,-0.1400, 0.9854, 0.0840,-0.0349,-0.1824,-0.0247,-2.0999,-1.4224, 2.5428
09-Sep-2020 11:04:48.242,-0.1315, 0.9853, 0.0801,-0.0332,-0.2173,-0.0226,-2.1026,-1.4221, 2.5419
09-Sep-2020 11:04:48.252,-0.1268, 0.9859, 0.0775,-0.0323,-0.2287,-0.0151,-2.1057,-1.4218, 2.5410
09-Sep-2020 11:04:48.262,-0.1223, 0.9881, 0.0711,-0.0322,-0.2312,-0.0114,-2.1091,-1.4215, 2.5399
09-Sep-2020 11:04:48.273,-0.1198, 0.9892, 0.0661,-0.0296,-0.2347,-0.0039,-2.1126,-1.4212, 2.5388
09-Sep-2020 11:04:48.282,-0.1213, 0.9890, 0.0661,-0.0239,-0.2233, 0.0042,-2.1162,-1.4211, 2.5375
09-Sep-2020 11:04:48.292,-0.1262, 0.9878, 0.0680,-0.0126,-0.1980, 0.0124,-2.1197,-1.4210, 2.5362
09-Sep-2020 11:04:48.302,-0.1346, 0.9872, 0.0714,-0.0048,-0.1701, 0.0140,-2.1227,-1.4210, 2.5352
09-Sep-2020 11:04:48.312,-0.1412, 0.9855, 0.0763, 0.0070,-0.1441, 0.0117,-2.1250,-1.4211, 2.5346
09-Sep-2020 11:04:48.322,-0.1458, 0.9833, 0.0804, 0.0090,-0.1255, 0.0146,-2.1265,-1.4213, 2.5346
09-Sep-2020 11:04:48.332,-0.1494, 0.9827, 0.0863, 0.0071,-0.1268, 0.0187,-2.1277,-1.4215, 2.5347
09-Sep-2020 11:04:48.342,-0.1518, 0.9830, 0.0884, 0.0000,-0.1423, 0.0180,-2.1293,-1.4218, 2.5345
09-Sep-2020 11:04:48.352,-0.1523, 0.9822, 0.0916,-0.0075,-0.1656, 0.0167,-2.1314,-1.4220, 2.5338
09-Sep-2020 11:04:48.362,-0.1517, 0.9841, 0.0898,-0.0157,-0.1907, 0.0138,-2.1340,-1.4222, 2.5328
09-Sep-2020 11:04:48.372,-0.1487, 0.9838, 0.0876,-0.0166,-0.2154, 0.0146,-2.1372,-1.4224, 2.5316
09-Sep-2020 11:04:48.382,-0.1446, 0.9831, 0.0882,-0.0249,-0.2360, 0.0124,-2.1407,-1.4225, 2.5302
09-Sep-2020 11:04:48.392,-0.1432, 0.9819, 0.0855,-0.0294,-0.2411, 0.0131,-2.1448,-1.4225, 2.5285
09-Sep-2020 11:04:48.401,-0.1422, 0.9804, 0.0807,-0.0269,-0.2461, 0.0111,-2.1491,-1.4225, 2.5266
09-Sep-2020 11:04:48.412,-0.1395, 0.9793, 0.0768,-0.0256,-0.2434, 0.0106,-2.1534,-1.4225, 2.5247
09-Sep-2020 11:04:48.421,-0.1371, 0.9776, 0.0762,-0.0271,-0.2386, 0.0120,-2.1576,-1.4226, 2.5230
09-Sep-2020 11:04:48.431,-0.1319, 0.9764, 0.0790,-0.0219,-0.2290, 0.0123,-2.1617,-1.4226, 2.5213
09-Sep-2020 11:04:48.441,-0.1259, 0.9761, 0.0810,-0.0169,-0.2121, 0.0138,-2.1655,-1.4226, 2.5198
09-Sep-2020 11:04:48.451,-0.1198, 0.9776, 0.0806,-0.0153,-0.1924, 0.0159,-2.1690,-1.4226, 2.5184
09-Sep-2020 11:04:48.461,-0.1149, 0.9785, 0.0809,-0.0153,-0.1791, 0.0113,-2.1722,-1.4227, 2.5172
09-Sep-2020 11:04:48.471,-0.1102, 0.9808, 0.0798,-0.0110,-0.1671, 0.0104,-2.1751,-1.4228, 2.5161
09-Sep-2020 11:04:48.481,-0.1084, 0.9848, 0.0794,-0.0086,-0.1552, 0.0111,-2.1777,-1.4228, 2.5152
09-Sep-2020 11:04:48.491,-0.1066, 0.9888, 0.0798,-0.0090,-0.1452, 0.0082,-2.1800,-1.4229, 2.5144
09-Sep-2020 11:04:48.501,-0.1064, 0.9924, 0.0780,-0.0058,-0.1336, 0.0051,-2.1821,-1.4230, 2.5138
09-Sep-2020 11:04:48.511,-0.1046, 0.9933, 0.0769,-0.0077,-0.1226,-0.0006,-2.1839,-1.4230, 2.5134
09-Sep-2020 11:04:48.521,-0.1031, 0.9919, 0.0738,-0.0152,-0.1129, 0.0004,-2.1854,-1.4230, 2.5131
09-Sep-2020 11:04:48.531,-0.1017, 0.9872, 0.0711,-0.0181,-0.1028, 0.0040,-2.1873,-1.4230, 2.5124
09-Sep-2020 11:04:48.541,-0.1005, 0.9836, 0.0697,-0.0184,-0.0895, 0.0071,-2.1895,-1.4231, 2.5113
09-Sep-2020 11:04:48.551,-0.1008, 0.9834, 0.0722,-0.0196,-0.0649, 0.0113,-2.1917,-1.4231, 2.5100
09-Sep-2020 11:04:48.561,-0.1016, 0.9839, 0.0761,-0.0195,-0.0365, 0.0142,-2.1939,-1.4232, 2.5085
09-Sep-2020 11:04:48.571,-0.1039, 0.9888, 0.0788,-0.0137,-0.0076, 0.0116,-2.1958,-1.4233, 2.5069
09-Sep-2020 11:04:48.581,-0.1051, 0.9924, 0.0782,-0.0130, 0.0013, 0.0075,-2.1972,-1.4234, 2.5056
09-Sep-2020 11:04:48.591,-0.1019, 0.9853, 0.0791,-0.0153, 0.0015, 0.0081,-2.1983,-1.4235, 2.5045
09-Sep-2020 11:04:48.601,-0.0969, 0.9803, 0.0778,-0.0186,-0.0081, 0.0117,-2.1996,-1.4236, 2.5032
09-Sep-2020 11:04:48.611,-0.0915, 0.9793, 0.0785,-0.0198,-0.0045, 0.0137,-2.2013,-1.4236, 2.5017
09-Sep-2020 11:04:48.621,-0.0906, 0.9848, 0.0805,-0.0160, 0.0214, 0.0197,-2.2031,-1.4238, 2.4999
09-Sep-2020 11:04:48.631,-0.0887, 0.9899, 0.0836,-0.0158, 0.0564, 0.0257,-2.2046,-1.4239, 2.4982
09-Sep-2020 11:04:48.641,-0.0889, 0.9955, 0.0864,-0.0097, 0.0991, 0.0282,-2.2059,-1.4242, 2.4963
09-Sep-2020 11:04:48.650,-0.0917, 0.9945, 0.0885,-0.0069, 0.1375, 0.0285,-2.2067,-1.4244, 2.4946
09-Sep-2020 11:04:48.660,-0.0966, 0.9954, 0.0894,-0.0096, 0.1655, 0.0266,-2.2070,-1.4247, 2.4929
09-Sep-2020 11:04:48.670,-0.1011, 0.9919, 0.0927,-0.0095, 0.1637, 0.0165,-2.2071,-1.4250, 2.4913
09-Sep-2020 11:04:48.680,-0.1030, 0.9855, 0.0968,-0.0178, 0.1636, 0.0252,-2.2069,-1.4252, 2.4899
09-Sep-2020 11:04:48.690,-0.1157, 0.9800, 0.0930,-0.0192, 0.1451, 0.0255,-2.2073,-1.4254, 2.4878
09-Sep-2020 11:04:48.700,-0.1195, 0.9774, 0.0945,-0.0207, 0.1219, 0.0076,-2.2080,-1.4256, 2.4857
09-Sep-2020 11:04:48.711,-0.1168, 0.9799, 0.0967,-0.0196, 0.1235,-0.0015,-2.2084,-1.4256, 2.4841
09-Sep-2020 11:04:48.720,-0.1107, 0.9855, 0.0947,-0.0209, 0.1372,-0.0016,-2.2085,-1.4256, 2.4828
09-Sep-2020 11:04:48.730,-0.1074, 0.9915, 0.0877,-0.0277, 0.1445,-0.0005,-2.2086,-1.4256, 2.4814
09-Sep-2020 11:04:48.740,-0.1044, 0.9940, 0.0844,-0.0342, 0.1521,-0.0009,-2.2089,-1.4256, 2.4797
09-Sep-2020 11:04:48.750,-0.1005, 0.9899, 0.0832,-0.0378, 0.1542, 0.0018,-2.2095,-1.4255, 2.4776
09-Sep-2020 11:04:48.760,-0.1028, 0.9888, 0.0816,-0.0343, 0.1634, 0.0002,-2.2102,-1.4254, 2.4753
09-Sep-2020 11:04:48.770,-0.1093, 0.9857, 0.0817,-0.0339, 0.1829,-0.0086,-2.2107,-1.4252, 2.4732
09-Sep-2020 11:04:48.780,-0.1144, 0.9802, 0.0776,-0.0301, 0.1994,-0.0157,-2.2106,-1.4251, 2.4715
09-Sep-2020 11:04:48.790,-0.1156, 0.9808, 0.0729,-0.0250, 0.2085,-0.0221,-2.2098,-1.4248, 2.4704
09-Sep-2020 11:04:48.800,-0.1118, 0.9862, 0.0725,-0.0149, 0.2043,-0.0301,-2.2082,-1.4246, 2.4699
09-Sep-2020 11:04:48.810,-0.1073, 0.9812, 0.0735,-0.0126, 0.1929,-0.0314,-2.2061,-1.4243, 2.4701
09-Sep-2020 11:04:48.820,-0.1051, 0.9752, 0.0758,-0.0136, 0.1813,-0.0419,-2.2038,-1.4241, 2.4705
09-Sep-2020 11:04:48.830,-0.1071, 0.9720, 0.0756,-0.0070, 0.1615,-0.0442,-2.2013,-1.4238, 2.4713
09-Sep-2020 11:04:48.839,-0.1123, 0.9700, 0.0743,-0.0027, 0.1463,-0.0480,-2.1985,-1.4235, 2.4725
09-Sep-2020 11:04:48.850,-0.1212, 0.9730, 0.0735, 0.0071, 0.1405,-0.0536,-2.1954,-1.4232, 2.4742
09-Sep-2020 11:04:48.859,-0.1310, 0.9779, 0.0784, 0.0147, 0.1575,-0.0669,-2.1916,-1.4229, 2.4767
09-Sep-2020 11:04:48.869,-0.1369, 0.9811, 0.0858, 0.0188, 0.1819,-0.0881,-2.1867,-1.4225, 2.4801
09-Sep-2020 11:04:48.879,-0.1390, 0.9810, 0.0885, 0.0181, 0.2109,-0.0978,-2.1806,-1.4220, 2.4844
09-Sep-2020 11:04:48.889,-0.1401, 0.9821, 0.0898, 0.0217, 0.2364,-0.0994,-2.1738,-1.4214, 2.4892
09-Sep-2020 11:04:48.899,-0.1371, 0.9844, 0.0958, 0.0223, 0.2559,-0.1088,-2.1666,-1.4208, 2.4942
09-Sep-2020 11:04:48.909,-0.1345, 0.9885, 0.1022, 0.0187, 0.2711,-0.1110,-2.1590,-1.4202, 2.4994
09-Sep-2020 11:04:48.920,-0.1321, 0.9928, 0.1092, 0.0125, 0.2817,-0.1103,-2.1513,-1.4195, 2.5044
09-Sep-2020 11:04:48.929,-0.1291, 0.9956, 0.1132, 0.0008, 0.2924,-0.1119,-2.1440,-1.4187, 2.5090
09-Sep-2020 11:04:48.939,-0.1280, 0.9974, 0.1119,-0.0083, 0.2779,-0.1015,-2.1372,-1.4179, 2.5130
09-Sep-2020 11:04:48.949,-0.1245, 0.9984, 0.1087,-0.0092, 0.2491,-0.0903,-2.1313,-1.4171, 2.5162
09-Sep-2020 11:04:48.959,-0.1210, 0.9954, 0.1073,-0.0103, 0.2009,-0.0777,-2.1263,-1.4163, 2.5189
09-Sep-2020 11:04:48.969,-0.1177, 0.9932, 0.1068,-0.0103, 0.1442,-0.0644,-2.1222,-1.4157, 2.5210
09-Sep-2020 11:04:48.979,-0.1190, 0.9943, 0.1049,-0.0145, 0.0959,-0.0500,-2.1194,-1.4152, 2.5225
09-Sep-2020 11:04:48.989,-0.1216, 0.9938, 0.1025,-0.0181, 0.0614,-0.0387,-2.1176,-1.4147, 2.5233
09-Sep-2020 11:04:48.999,-0.1278, 0.9921, 0.0988,-0.0200, 0.0419,-0.0319,-2.1167,-1.4144, 2.5236
09-Sep-2020 11:04:49.009,-0.1349, 0.9857, 0.0956,-0.0169, 0.0337,-0.0271,-2.1164,-1.4141, 2.5235
09-Sep-2020 11:04:49.018,-0.1415, 0.9747, 0.0906,-0.0085, 0.0372,-0.0306,-2.1163,-1.4138, 2.5234
09-Sep-2020 11:04:49.029,-0.1470, 0.9688, 0.0872,-0.0023, 0.0453,-0.0319,-2.1156,-1.4136, 2.5237
09-Sep-2020 11:04:49.038,-0.1531, 0.9697, 0.0869, 0.0048, 0.0648,-0.0412,-2.1145,-1.4134, 2.5245
09-Sep-2020 11:04:49.048,-0.1615, 0.9743, 0.0879, 0.0058, 0.0974,-0.0504,-2.1125,-1.4131, 2.5259
09-Sep-2020 11:04:49.059,-0.1698, 0.9775, 0.0903, 0.0046, 0.1334,-0.0620,-2.1098,-1.4128, 2.5277
09-Sep-2020 11:04:49.068,-0.1765, 0.9779, 0.0874,-0.0026, 0.1622,-0.0771,-2.1065,-1.4124, 2.5297
09-Sep-2020 11:04:49.078,-0.1775, 0.9755, 0.0819,-0.0072, 0.1560,-0.0878,-2.1029,-1.4118, 2.5318
09-Sep-2020 11:04:49.088,-0.1783, 0.9732, 0.0797,-0.0081, 0.1389,-0.0972,-2.0991,-1.4111, 2.5341
09-Sep-2020 11:04:49.098,-0.1774, 0.9732, 0.0798,-0.0137, 0.1094,-0.1037,-2.0953,-1.4103, 2.5366
09-Sep-2020 11:04:49.108,-0.1744, 0.9755, 0.0811,-0.0167, 0.0917,-0.1116,-2.0919,-1.4094, 2.5390
09-Sep-2020 11:04:49.118,-0.1698, 0.9795, 0.0780,-0.0185, 0.0641,-0.1178,-2.0886,-1.4084, 2.5415
09-Sep-2020 11:04:49.128,-0.1651, 0.9830, 0.0744,-0.0183, 0.0405,-0.1209,-2.0854,-1.4074, 2.5442
09-Sep-2020 11:04:49.138,-0.1645, 0.9846, 0.0708,-0.0143, 0.0180,-0.1255,-2.0823,-1.4063, 2.5469
09-Sep-2020 11:04:49.148,-0.1655, 0.9840, 0.0662,-0.0101,-0.0001,-0.1222,-2.0792,-1.4052, 2.5499
09-Sep-2020 11:04:49.158,-0.1687, 0.9825, 0.0571,-0.0075,-0.0180,-0.1247,-2.0761,-1.4042, 2.5531
09-Sep-2020 11:04:49.168,-0.1732, 0.9797, 0.0513, 0.0016,-0.0350,-0.1282,-2.0730,-1.4031, 2.5565
09-Sep-2020 11:04:49.178,-0.1765, 0.9746, 0.0487, 0.0065,-0.0472,-0.1283,-2.0695,-1.4020, 2.5604
09-Sep-2020 11:04:49.188,-0.1801, 0.9720, 0.0508, 0.0117,-0.0403,-0.1314,-2.0659,-1.4010, 2.5645
09-Sep-2020 11:04:49.198,-0.1836, 0.9711, 0.0547, 0.0143,-0.0199,-0.1342,-2.0620,-1.3999, 2.5690
09-Sep-2020 11:04:49.208,-0.1864, 0.9737, 0.0615, 0.0107, 0.0112,-0.1385,-2.0577,-1.3988, 2.5735
09-Sep-2020 11:04:49.218,-0.1884, 0.9784, 0.0702, 0.0077, 0.0373,-0.1377,-2.0533,-1.3977, 2.5780
09-Sep-2020 11:04:49.228,-0.1897, 0.9839, 0.0792, 0.0006, 0.0587,-0.1393,-2.0487,-1.3966, 2.5822
09-Sep-2020 11:04:49.238,-0.1887, 0.9900, 0.0871,-0.0066, 0.0882,-0.1425,-2.0444,-1.3955, 2.5861
09-Sep-2020 11:04:49.247,-0.1870, 0.9933, 0.0891,-0.0144, 0.0969,-0.1493,-2.0400,-1.3942, 2.5897
09-Sep-2020 11:04:49.257,-0.1830, 0.9888, 0.0838,-0.0189, 0.0833,-0.1544,-2.0358,-1.3929, 2.5931
09-Sep-2020 11:04:49.267,-0.1767, 0.9809, 0.0764,-0.0198, 0.0478,-0.1496,-2.0319,-1.3916, 2.5962
09-Sep-2020 11:04:49.277,-0.1738, 0.9752, 0.0650,-0.0230,-0.0081,-0.1456,-2.0285,-1.3902, 2.5992
09-Sep-2020 11:04:49.287,-0.1723, 0.9719, 0.0564,-0.0202,-0.0665,-0.1393,-2.0259,-1.3889, 2.6020
09-Sep-2020 11:04:49.297,-0.1719, 0.9711, 0.0532,-0.0119,-0.1145,-0.1320,-2.0239,-1.3876, 2.6047
09-Sep-2020 11:04:49.307,-0.1756, 0.9732, 0.0560,-0.0106,-0.1419,-0.1252,-2.0223,-1.3864, 2.6075
09-Sep-2020 11:04:49.317,-0.1824, 0.9784, 0.0614,-0.0132,-0.1468,-0.1266,-2.0211,-1.3853, 2.6102
09-Sep-2020 11:04:49.327,-0.1861, 0.9829, 0.0653,-0.0173,-0.1327,-0.1280,-2.0202,-1.3841, 2.6127
09-Sep-2020 11:04:49.337,-0.1922, 0.9866, 0.0684,-0.0172,-0.1071,-0.1340,-2.0193,-1.3830, 2.6150
09-Sep-2020 11:04:49.347,-0.1931, 0.9881, 0.0702,-0.0179,-0.0763,-0.1414,-2.0181,-1.3817, 2.6173
09-Sep-2020 11:04:49.357,-0.1933, 0.9867, 0.0697,-0.0182,-0.0559,-0.1464,-2.0165,-1.3805, 2.6197
09-Sep-2020 11:04:49.367,-0.1903, 0.9844, 0.0702,-0.0104,-0.0348,-0.1531,-2.0145,-1.3792, 2.6223
09-Sep-2020 11:04:49.377,-0.1853, 0.9810, 0.0696,-0.0075,-0.0108,-0.1632,-2.0119,-1.3778, 2.6254
09-Sep-2020 11:04:49.387,-0.1781, 0.9762, 0.0681,-0.0037, 0.0037,-0.1653,-2.0086,-1.3764, 2.6289
09-Sep-2020 11:04:49.397,-0.1715, 0.9736, 0.0712, 0.0008, 0.0301,-0.1655,-2.0050,-1.3750, 2.6326
09-Sep-2020 11:04:49.406,-0.1659, 0.9739, 0.0767,-0.0014, 0.0529,-0.1675,-2.0011,-1.3736, 2.6363
09-Sep-2020 11:04:49.417,-0.1612, 0.9752, 0.0814, 0.0014, 0.0839,-0.1655,-1.9970,-1.3722, 2.6400
09-Sep-2020 11:04:49.427,-0.1558, 0.9784, 0.0874,-0.0014, 0.1146,-0.1609,-1.9927,-1.3708, 2.6436
09-Sep-2020 11:04:49.438,-0.1540, 0.9834, 0.0906,-0.0008, 0.1373,-0.1524,-1.9883,-1.3694, 2.6470
09-Sep-2020 11:04:49.446,-0.1580, 0.9842, 0.0892,-0.0073, 0.1515,-0.1514,-1.9839,-1.3681, 2.6501
09-Sep-2020 11:04:49.456,-0.1601, 0.9844, 0.0870,-0.0090, 0.1589,-0.1447,-1.9797,-1.3667, 2.6529
09-Sep-2020 11:04:49.467,-0.1650, 0.9833, 0.0814,-0.0086, 0.1588,-0.1408,-1.9757,-1.3655, 2.6554
09-Sep-2020 11:04:49.476,-0.1665, 0.9809, 0.0796,-0.0170, 0.1512,-0.1331,-1.9718,-1.3643, 2.6578
09-Sep-2020 11:04:49.486,-0.1686, 0.9784, 0.0796,-0.0212, 0.1420,-0.1302,-1.9685,-1.3631, 2.6597
09-Sep-2020 11:04:49.496,-0.1687, 0.9755, 0.0809,-0.0204, 0.1350,-0.1234,-1.9655,-1.3619, 2.6613
09-Sep-2020 11:04:49.506,-0.1687, 0.9743, 0.0858,-0.0189, 0.1271,-0.1198,-1.9629,-1.3608, 2.6627
09-Sep-2020 11:04:49.517,-0.1710, 0.9719, 0.0915,-0.0220, 0.1378,-0.1197,-1.9604,-1.3598, 2.6640
09-Sep-2020 11:04:49.526,-0.1747, 0.9745, 0.0988,-0.0249, 0.1560,-0.1154,-1.9580,-1.3587, 2.6651
09-Sep-2020 11:04:49.536,-0.1820, 0.9784, 0.1064,-0.0260, 0.1701,-0.1124,-1.9556,-1.3577, 2.6660
09-Sep-2020 11:04:49.546,-0.1875, 0.9796, 0.1077,-0.0272, 0.1905,-0.1155,-1.9531,-1.3567, 2.6668
09-Sep-2020 11:04:49.556,-0.1916, 0.9821, 0.1047,-0.0254, 0.1956,-0.1141,-1.9505,-1.3556, 2.6676
09-Sep-2020 11:04:49.566,-0.1915, 0.9818, 0.0962,-0.0187, 0.1824,-0.1128,-1.9477,-1.3546, 2.6685
09-Sep-2020 11:04:49.576,-0.1887, 0.9795, 0.0895,-0.0167, 0.1616,-0.1088,-1.9448,-1.3536, 2.6697
09-Sep-2020 11:04:49.586,-0.1855, 0.9750, 0.0851,-0.0134, 0.1363,-0.1067,-1.9421,-1.3527, 2.6709
09-Sep-2020 11:04:49.596,-0.1818, 0.9704, 0.0784,-0.0140, 0.1250,-0.1075,-1.9396,-1.3518, 2.6721
09-Sep-2020 11:04:49.606,-0.1821, 0.9668, 0.0735,-0.0088, 0.1166,-0.1044,-1.9372,-1.3508, 2.6733
09-Sep-2020 11:04:49.616,-0.1851, 0.9645, 0.0766,-0.0074, 0.1233,-0.0990,-1.9349,-1.3499, 2.6745
09-Sep-2020 11:04:49.626,-0.1953, 0.9669, 0.0835,-0.0083, 0.1440,-0.0933,-1.9325,-1.3491, 2.6757
09-Sep-2020 11:04:49.636,-0.2053, 0.9701, 0.0947,-0.0126, 0.1847,-0.0945,-1.9301,-1.3483, 2.6768
09-Sep-2020 11:04:49.646,-0.2087, 0.9747, 0.1042,-0.0173, 0.2238,-0.1013,-1.9274,-1.3474, 2.6777
09-Sep-2020 11:04:49.656,-0.2059, 0.9805, 0.1107,-0.0262, 0.2609,-0.1050,-1.9245,-1.3465, 2.6784
09-Sep-2020 11:04:49.666,-0.1976, 0.9843, 0.1118,-0.0298, 0.2891,-0.1099,-1.9214,-1.3456, 2.6790
09-Sep-2020 11:04:49.675,-0.1891, 0.9863, 0.1049,-0.0312, 0.2968,-0.1066,-1.9182,-1.3446, 2.6794
09-Sep-2020 11:04:49.686,-0.1800, 0.9846, 0.0956,-0.0230, 0.2908,-0.0986,-1.9150,-1.3436, 2.6797
09-Sep-2020 11:04:49.696,-0.1726, 0.9790, 0.0878,-0.0143, 0.2795,-0.0857,-1.9117,-1.3427, 2.6802
09-Sep-2020 11:04:49.705,-0.1707, 0.9772, 0.0842,-0.0065, 0.2814,-0.0702,-1.9083,-1.3419, 2.6809
09-Sep-2020 11:04:49.715,-0.1755, 0.9739, 0.0819, 0.0013, 0.2862,-0.0506,-1.9048,-1.3414, 2.6817
09-Sep-2020 11:04:49.725,-0.1875, 0.9728, 0.0849, 0.0023, 0.2870,-0.0411,-1.9012,-1.3410, 2.6824
09-Sep-2020 11:04:49.735,-0.2025, 0.9723, 0.0914, 0.0049, 0.3022,-0.0343,-1.8978,-1.3407, 2.6831
09-Sep-2020 11:04:49.745,-0.2135, 0.9734, 0.0972,-0.0038, 0.3138,-0.0322,-1.8943,-1.3405, 2.6837
09-Sep-2020 11:04:49.755,-0.2165, 0.9747, 0.1004,-0.0122, 0.3245,-0.0321,-1.8910,-1.3402, 2.6839
09-Sep-2020 11:04:49.765,-0.2130, 0.9754, 0.1016,-0.0193, 0.3348,-0.0329,-1.8880,-1.3400, 2.6837
09-Sep-2020 11:04:49.775,-0.2046, 0.9769, 0.1025,-0.0264, 0.3426,-0.0328,-1.8850,-1.3397, 2.6834
09-Sep-2020 11:04:49.785,-0.1955, 0.9795, 0.1005,-0.0324, 0.3458,-0.0296,-1.8821,-1.3394, 2.6829
09-Sep-2020 11:04:49.795,-0.1840, 0.9846, 0.0989,-0.0433, 0.3523,-0.0153,-1.8796,-1.3391, 2.6820
09-Sep-2020 11:04:49.805,-0.1732, 0.9855, 0.0948,-0.0503, 0.3785, 0.0040,-1.8775,-1.3389, 2.6806
09-Sep-2020 11:04:49.815,-0.1663, 0.9829, 0.0877,-0.0575, 0.3982, 0.0247,-1.8758,-1.3389, 2.6785
09-Sep-2020 11:04:49.825,-0.1629, 0.9765, 0.0798,-0.0594, 0.4174, 0.0490,-1.8745,-1.3390, 2.6759
09-Sep-2020 11:04:49.835,-0.1659, 0.9731, 0.0716,-0.0599, 0.4241, 0.0668,-1.8733,-1.3394, 2.6728
09-Sep-2020 11:04:49.845,-0.1687, 0.9717, 0.0669,-0.0587, 0.4258, 0.0828,-1.8723,-1.3400, 2.6696
09-Sep-2020 11:04:49.855,-0.1720, 0.9719, 0.0634,-0.0609, 0.4265, 0.0970,-1.8714,-1.3406, 2.6662
09-Sep-2020 11:04:49.864,-0.1751, 0.9749, 0.0587,-0.0605, 0.4253, 0.1119,-1.8708,-1.3415, 2.6625
09-Sep-2020 11:04:49.874,-0.1794, 0.9783, 0.0544,-0.0611, 0.4246, 0.1212,-1.8705,-1.3424, 2.6586
09-Sep-2020 11:04:49.884,-0.1800, 0.9821, 0.0537,-0.0674, 0.4206, 0.1366,-1.8703,-1.3435, 2.6545
09-Sep-2020 11:04:49.894,-0.1826, 0.9894, 0.0547,-0.0678, 0.4209, 0.1486,-1.8705,-1.3447, 2.6500
09-Sep-2020 11:04:49.904,-0.1850, 0.9918, 0.0590,-0.0716, 0.4370, 0.1634,-1.8710,-1.3460, 2.6453
09-Sep-2020 11:04:49.914,-0.1857, 0.9910, 0.0600,-0.0775, 0.4574, 0.1805,-1.8717,-1.3474, 2.6401
09-Sep-2020 11:04:49.925,-0.1930, 0.9900, 0.0597,-0.0804, 0.4705, 0.2033,-1.8726,-1.3490, 2.6345
09-Sep-2020 11:04:49.934,-0.2034, 0.9904, 0.0606,-0.0810, 0.4753, 0.2248,-1.8740,-1.3508, 2.6284
09-Sep-2020 11:04:49.944,-0.2165, 0.9953, 0.0588,-0.0798, 0.4612, 0.2501,-1.8757,-1.3527, 2.6218
09-Sep-2020 11:04:49.954,-0.2282, 0.9973, 0.0611,-0.0724, 0.4331, 0.2674,-1.8780,-1.3549, 2.6148
09-Sep-2020 11:04:49.964,-0.2384, 0.9976, 0.0602,-0.0583, 0.3893, 0.2846,-1.8804,-1.3573, 2.6079
09-Sep-2020 11:04:49.974,-0.2448, 0.9923, 0.0547,-0.0486, 0.3336, 0.3020,-1.8831,-1.3599, 2.6013
09-Sep-2020 11:04:49.984,-0.2481, 0.9822, 0.0475,-0.0391, 0.2641, 0.3168,-1.8862,-1.3627, 2.5947
09-Sep-2020 11:04:49.994,-0.2559, 0.9703, 0.0390,-0.0304, 0.1855, 0.3379,-1.8900,-1.3657, 2.5882
09-Sep-2020 11:04:50.004,-0.2640, 0.9640, 0.0347,-0.0191, 0.1023, 0.3470,-1.8946,-1.3688, 2.5817
09-Sep-2020 11:04:50.014,-0.2702, 0.9541, 0.0381,-0.0119, 0.0262, 0.3444,-1.8999,-1.3721, 2.5754
09-Sep-2020 11:04:50.024,-0.2750, 0.9445, 0.0404,-0.0101,-0.0284, 0.3406,-1.9058,-1.3754, 2.5691
09-Sep-2020 11:04:50.034,-0.2839, 0.9385, 0.0437,-0.0048,-0.0577, 0.3355,-1.9122,-1.3786, 2.5629
09-Sep-2020 11:04:50.044,-0.2913, 0.9340, 0.0519,-0.0037,-0.0560, 0.3270,-1.9188,-1.3819, 2.5568
09-Sep-2020 11:04:50.054,-0.2995, 0.9363, 0.0579,-0.0005,-0.0498, 0.3103,-1.9254,-1.3850, 2.5507
09-Sep-2020 11:04:50.064,-0.3015, 0.9433, 0.0533, 0.0050,-0.0559, 0.2854,-1.9318,-1.3880, 2.5448
09-Sep-2020 11:04:50.074,-0.2964, 0.9474, 0.0484, 0.0063,-0.0830, 0.2515,-1.9376,-1.3907, 2.5395
09-Sep-2020 11:04:50.083,-0.2804, 0.9505, 0.0433, 0.0059,-0.1163, 0.2264,-1.9432,-1.3932, 2.5347
09-Sep-2020 11:04:50.093,-0.2582, 0.9538, 0.0362,-0.0032,-0.1506, 0.2026,-1.9487,-1.3954, 2.5303
09-Sep-2020 11:04:50.104,-0.2368, 0.9485, 0.0241,-0.0002,-0.1790, 0.2000,-1.9546,-1.3973, 2.5259
09-Sep-2020 11:04:50.113,-0.2371, 0.9403, 0.0542,-0.0859,-0.0987, 0.3375,-1.9613,-1.3993, 2.5209
09-Sep-2020 11:04:50.123,-0.2755, 0.9999, 0.0514,-0.2768, 0.1987, 0.4589,-1.9748,-1.4021, 2.5081
09-Sep-2020 11:04:50.133,-0.2743, 0.9844,-0.0246,-0.5439, 0.3720, 0.4138,-1.9979,-1.4051, 2.4828
09-Sep-2020 11:04:50.143,-0.3102, 0.9893, 0.0294,-0.9580, 0.0663, 0.4072,-2.0408,-1.4063, 2.4372
09-Sep-2020 11:04:50.154,-0.2615, 1.0694,-0.0163,-0.1464, 0.6535, 0.2243,-2.0974,-1.4056, 2.3787
09-Sep-2020 11:04:50.163,-0.1902, 1.0083,-0.1154, 0.2413, 0.2434, 0.0579,-2.1076,-1.4067, 2.3625
09-Sep-2020 11:04:50.173,-0.1324, 1.0051, 0.0029, 0.3780,-0.1623,-0.0168,-2.0955,-1.4085, 2.3724
09-Sep-2020 11:04:50.183,-0.0898, 0.9673, 0.1190, 0.5084,-0.1961,-0.0310,-2.0764,-1.4103, 2.3931
09-Sep-2020 11:04:50.193,-0.0607, 0.8771, 0.1607, 0.5586,-0.1542,-0.0841,-2.0499,-1.4125, 2.4220
09-Sep-2020 11:04:50.203,-0.0342, 0.8790, 0.1833, 0.5002,-0.1177,-0.1025,-2.0180,-1.4143, 2.4558
09-Sep-2020 11:04:50.213,-0.0505, 0.9988, 0.1848, 0.3646,-0.1125,-0.0539,-1.9880,-1.4155, 2.4875
09-Sep-2020 11:04:50.223,-0.0648, 1.0801, 0.1618, 0.1851,-0.0578, 0.0138,-1.9666,-1.4166, 2.5102
09-Sep-2020 11:04:50.233,-0.0829, 1.0177, 0.1239, 0.0919,-0.0625, 0.0498,-1.9562,-1.4175, 2.5215
09-Sep-2020 11:04:50.243,-0.1115, 0.9514, 0.0924, 0.0623,-0.0575, 0.0462,-1.9522,-1.4183, 2.5262
09-Sep-2020 11:04:50.253,-0.1494, 0.9205, 0.0548, 0.0919,-0.0842,-0.0180,-1.9498,-1.4191, 2.5293
09-Sep-2020 11:04:50.263,-0.1560, 0.9598, 0.0406, 0.1307,-0.1068,-0.0763,-1.9445,-1.4193, 2.5355
09-Sep-2020 11:04:50.273,-0.1849, 0.9983, 0.0322, 0.1337,-0.1476,-0.0906,-1.9360,-1.4192, 2.5452
09-Sep-2020 11:04:50.283,-0.2045, 0.9871, 0.0299, 0.0896,-0.2021,-0.0619,-1.9276,-1.4189, 2.5553
09-Sep-2020 11:04:50.293,-0.2257, 0.9578, 0.0240, 0.0746,-0.2825,-0.0139,-1.9225,-1.4187, 2.5625
09-Sep-2020 11:04:50.302,-0.2339, 0.9555, 0.0455, 0.0849,-0.3378, 0.0473,-1.9202,-1.4189, 2.5677
09-Sep-2020 11:04:50.312,-0.2450, 0.9861, 0.0777, 0.0704,-0.3096, 0.1138,-1.9194,-1.4197, 2.5719
09-Sep-2020 11:04:50.322,-0.2405, 1.0000, 0.0899, 0.0470,-0.2528, 0.1008,-1.9205,-1.4211, 2.5740
09-Sep-2020 11:04:50.332,-0.2019, 0.9966, 0.0880, 0.0165,-0.2168, 0.0471,-1.9223,-1.4222, 2.5748
09-Sep-2020 11:04:50.342,-0.1720, 0.9878, 0.0710,-0.0046,-0.1750, 0.0472,-1.9245,-1.4228, 2.5747
09-Sep-2020 11:04:50.352,-0.1542, 1.0031, 0.0402, 0.0158,-0.1699, 0.0363,-1.9273,-1.4233, 2.5737
09-Sep-2020 11:04:50.362,-0.1421, 0.9904, 0.0225, 0.0374,-0.2066, 0.0316,-1.9289,-1.4238, 2.5740
09-Sep-2020 11:04:50.372,-0.1351, 0.9722, 0.0237, 0.0523,-0.2353, 0.0389,-1.9290,-1.4243, 2.5760
09-Sep-2020 11:04:50.382,-0.1368, 0.9586, 0.0366, 0.0659,-0.2037, 0.0444,-1.9284,-1.4248, 2.5789
09-Sep-2020 11:04:50.392,-0.1387, 0.9572, 0.0357, 0.0803,-0.1646, 0.0273,-1.9267,-1.4254, 2.5828
09-Sep-2020 11:04:50.402,-0.1358, 0.9564, 0.0488, 0.0655,-0.1362, 0.0089,-1.9235,-1.4259, 2.5876
09-Sep-2020 11:04:50.412,-0.1355, 0.9725, 0.0626, 0.0312,-0.0912,-0.0138,-1.9206,-1.4261, 2.5920
09-Sep-2020 11:04:50.422,-0.1349, 0.9932, 0.0714, 0.0198,-0.0254,-0.0280,-1.9189,-1.4260, 2.5946
09-Sep-2020 11:04:50.432,-0.1377, 1.0167, 0.0752, 0.0295, 0.0336,-0.0166,-1.9172,-1.4259, 2.5966
09-Sep-2020 11:04:50.442,-0.1549, 1.0397, 0.0647, 0.0624, 0.0280,-0.0022,-1.9146,-1.4258, 2.5991
09-Sep-2020 11:04:50.452,-0.1539, 1.0275, 0.0658, 0.0988,-0.0637, 0.0016,-1.9100,-1.4261, 2.6035
09-Sep-2020 11:04:50.462,-0.1239, 0.9929, 0.0858, 0.0846,-0.1724,-0.0237,-1.9042,-1.4265, 2.6102
09-Sep-2020 11:04:50.472,-0.0939, 0.9678, 0.0964, 0.0408,-0.2631,-0.0049,-1.8998,-1.4267, 2.6163
09-Sep-2020 11:04:50.483,-0.0709, 0.9683, 0.0918,-0.0096,-0.2990,-0.0185,-1.8994,-1.4268, 2.6194
09-Sep-2020 11:04:50.492,-0.0557, 0.9855, 0.0686,-0.0458,-0.2863,-0.0405,-1.9023,-1.4266, 2.6194
09-Sep-2020 11:04:50.501,-0.0402, 0.9858, 0.0463,-0.0465,-0.2308,-0.0544,-1.9070,-1.4262, 2.6177
09-Sep-2020 11:04:50.512,-0.0243, 0.9858, 0.0358,-0.0360,-0.1436,-0.0527,-1.9110,-1.4256, 2.6159
09-Sep-2020 11:04:50.522,-0.0152, 0.9895, 0.0281,-0.0227,-0.0425,-0.0357,-1.9137,-1.4251, 2.6147
09-Sep-2020 11:04:50.531,-0.0138, 1.0011, 0.0226,-0.0107, 0.0703,-0.0175,-1.9148,-1.4248, 2.6141
09-Sep-2020 11:04:50.541,-0.0205, 1.0163, 0.0163, 0.0099, 0.1818,-0.0047,-1.9142,-1.4246, 2.6140
09-Sep-2020 11:04:50.551,-0.0344, 1.0210, 0.0105, 0.0309, 0.2788,-0.0010,-1.9116,-1.4246, 2.6148
09-Sep-2020 11:04:50.561,-0.0487, 1.0073, 0.0093, 0.0556, 0.3517, 0.0008,-1.9071,-1.4248, 2.6167
09-Sep-2020 11:04:50.571,-0.0661, 0.9950, 0.0148, 0.0706, 0.3917, 0.0116,-1.9006,-1.4251, 2.6198
09-Sep-2020 11:04:50.581,-0.0873, 0.9926, 0.0274, 0.0778, 0.4119, 0.0256,-1.8929,-1.4256, 2.6237
09-Sep-2020 11:04:50.591,-0.1082, 0.9915, 0.0412, 0.0678, 0.4102, 0.0273,-1.8848,-1.4263, 2.6279
09-Sep-2020 11:04:50.601,-0.1249, 0.9936, 0.0493, 0.0540, 0.3958, 0.0290,-1.8771,-1.4269, 2.6315
09-Sep-2020 11:04:50.611,-0.1391, 0.9985, 0.0485, 0.0365, 0.3667, 0.0269,-1.8708,-1.4278, 2.6340
09-Sep-2020 11:04:50.621,-0.1524, 1.0004, 0.0429, 0.0276, 0.3187, 0.0270,-1.8651,-1.4282, 2.6362
09-Sep-2020 11:04:50.631,-0.1630, 0.9984, 0.0347, 0.0195, 0.2543, 0.0245,-1.8605,-1.4286, 2.6376
09-Sep-2020 11:04:50.641,-0.1684, 0.9922, 0.0225, 0.0087, 0.1743, 0.0223,-1.8572,-1.4290, 2.6385
09-Sep-2020 11:04:50.651,-0.1667, 0.9845, 0.0091, 0.0057, 0.0922, 0.0245,-1.8551,-1.4293, 2.6388
09-Sep-2020 11:04:50.661,-0.1660, 0.9782, 0.0012,-0.0035, 0.0128, 0.0374,-1.8543,-1.4297, 2.6388
09-Sep-2020 11:04:50.671,-0.1714, 0.9755,-0.0003,-0.0031,-0.0240, 0.0434,-1.8550,-1.4302, 2.6380
09-Sep-2020 11:04:50.681,-0.1811, 0.9742, 0.0052, 0.0020,-0.0144, 0.0429,-1.8562,-1.4307, 2.6370
09-Sep-2020 11:04:50.691,-0.1956, 0.9747, 0.0107, 0.0114, 0.0215, 0.0350,-1.8570,-1.4312, 2.6364
09-Sep-2020 11:04:50.701,-0.2080, 0.9790, 0.0172, 0.0255, 0.0531, 0.0237,-1.8565,-1.4317, 2.6367
09-Sep-2020 11:04:50.711,-0.2166, 0.9861, 0.0220, 0.0280, 0.0659, 0.0111,-1.8547,-1.4321, 2.6381
09-Sep-2020 11:04:50.721,-0.2220, 0.9926, 0.0239, 0.0230, 0.0395, 0.0084,-1.8522,-1.4323, 2.6400
09-Sep-2020 11:04:50.730,-0.2251, 0.9985, 0.0261, 0.0144,-0.0102, 0.0118,-1.8501,-1.4325, 2.6418
09-Sep-2020 11:04:50.740,-0.2186, 0.9998, 0.0303, 0.0092,-0.0730, 0.0222,-1.8490,-1.4327, 2.6431
09-Sep-2020 11:04:50.750,-0.2033, 1.0013, 0.0443, 0.0119,-0.1201, 0.0354,-1.8491,-1.4330, 2.6438
09-Sep-2020 11:04:50.760,-0.1872, 1.0016, 0.0706, 0.0472,-0.1087, 0.0474,-1.8495,-1.4334, 2.6446
09-Sep-2020 11:04:50.770,-0.1743, 1.0016, 0.0956, 0.1272,-0.0273, 0.0589,-1.8474,-1.4340, 2.6478
09-Sep-2020 11:04:50.780,-0.1627, 1.0086, 0.1178, 0.2279, 0.0750, 0.0673,-1.8393,-1.4350, 2.6563
09-Sep-2020 11:04:50.790,-0.1538, 1.0172, 0.1477, 0.2816, 0.1378, 0.0819,-1.8234,-1.4362, 2.6716
09-Sep-2020 11:04:50.800,-0.1446, 1.0259, 0.1714, 0.2475, 0.1108, 0.0853,-1.8032,-1.4377, 2.6907
09-Sep-2020 11:04:50.810,-0.1397, 1.0395, 0.1731, 0.1916, 0.0348, 0.0900,-1.7852,-1.4390, 2.7078
09-Sep-2020 11:04:50.820,-0.1474, 1.0572, 0.1512, 0.1502,-0.0921, 0.0839,-1.7717,-1.4403, 2.7212
09-Sep-2020 11:04:50.830,-0.1609, 1.0726, 0.1212, 0.1080,-0.2943, 0.0662,-1.7623,-1.4413, 2.7317
09-Sep-2020 11:04:50.840,-0.1734, 1.0909, 0.1143, 0.0470,-0.5516, 0.0420,-1.7578,-1.4422, 2.7392
09-Sep-2020 11:04:50.850,-0.1855, 1.1055, 0.1114,-0.0434,-0.7882, 0.0192,-1.7603,-1.4427, 2.7423
09-Sep-2020 11:04:50.860,-0.1965, 1.1099, 0.0836,-0.1514,-1.0008, 0.0022,-1.7717,-1.4429, 2.7387
09-Sep-2020 11:04:50.870,-0.2057, 1.0840, 0.0430,-0.2478,-1.1598,-0.0091,-1.7931,-1.4426, 2.7272
09-Sep-2020 11:04:50.880,-0.2112, 1.0280, 0.0286,-0.2553,-1.1807,-0.0230,-1.8225,-1.4420, 2.7092
09-Sep-2020 11:04:50.890,-0.1807, 0.9447, 0.0564,-0.0897,-0.9477,-0.0468,-1.8515,-1.4412, 2.6917
09-Sep-2020 11:04:50.899,-0.1333, 0.8506, 0.1026, 0.0844,-0.6103,-0.0355,-1.8664,-1.4407, 2.6862
09-Sep-2020 11:04:50.909,-0.1104, 0.7729, 0.1031, 0.0785,-0.4377, 0.0019,-1.8665,-1.4406, 2.6923
09-Sep-2020 11:04:50.920,-0.0990, 0.7359, 0.0564,-0.0420,-0.4561,-0.0000,-1.8657,-1.4409, 2.6977
09-Sep-2020 11:04:50.929,-0.0721, 0.7344, 0.0102,-0.1339,-0.4969,-0.0337,-1.8730,-1.4408, 2.6950
09-Sep-2020 11:04:50.940,-0.0282, 0.7642, 0.0176,-0.1468,-0.3949,-0.0596,-1.8864,-1.4402, 2.6865
09-Sep-2020 11:04:50.949, 0.0170, 0.8352, 0.0466,-0.0935,-0.0741,-0.0484,-1.8990,-1.4393, 2.6776
09-Sep-2020 11:04:50.959, 0.0484, 0.9105, 0.0387, 0.0082, 0.3245,-0.0297,-1.9048,-1.4386, 2.6724
09-Sep-2020 11:04:50.969, 0.0713, 0.9625, 0.0172, 0.0867, 0.6129,-0.0485,-1.9003,-1.4384, 2.6738
09-Sep-2020 11:04:50.979, 0.0938, 0.9935, 0.0153, 0.0832, 0.7728,-0.0854,-1.8873,-1.4383, 2.6809
09-Sep-2020 11:04:50.989, 0.1042, 1.0108, 0.0163, 0.0384, 0.8666,-0.1254,-1.8720,-1.4378, 2.6888
09-Sep-2020 11:04:50.999, 0.1130, 1.0168, 0.0151, 0.0300, 0.9380,-0.1536,-1.8577,-1.4368, 2.6946
09-Sep-2020 11:04:51.009, 0.1182, 1.0181, 0.0105, 0.1335, 1.0074,-0.1703,-1.8424,-1.4355, 2.7006
09-Sep-2020 11:04:51.019, 0.1089, 1.0051, 0.0005, 0.3093, 1.0522,-0.1196,-1.8195,-1.4344, 2.7137
09-Sep-2020 11:04:51.029, 0.0671, 0.9922,-0.0207, 0.4352, 1.0024, 0.0293,-1.7855,-1.4341, 2.7375
09-Sep-2020 11:04:51.039, 0.0093, 1.0036,-0.0398, 0.4954, 0.8002, 0.1489,-1.7451,-1.4352, 2.7683
09-Sep-2020 11:04:51.049,-0.0349, 1.0069,-0.0284, 0.5376, 0.5585, 0.2366,-1.7027,-1.4375, 2.8032
09-Sep-2020 11:04:51.059,-0.0858, 1.0084,-0.0065, 0.5866, 0.3442, 0.3123,-1.6587,-1.4405, 2.8420
09-Sep-2020 11:04:51.069,-0.1475, 1.0101, 0.0261, 0.6237, 0.1627, 0.3408,-1.6115,-1.4440, 2.8862
09-Sep-2020 11:04:51.079,-0.2169, 1.0021, 0.0983, 0.5712,-0.0333, 0.3287,-1.5611,-1.4476, 2.9353
09-Sep-2020 11:04:51.089,-0.2902, 0.9925, 0.1862, 0.4198,-0.2066, 0.2598,-1.5142,-1.4507, 2.9830
09-Sep-2020 11:04:51.098,-0.3325, 0.9827, 0.2484, 0.2230,-0.3485, 0.1833,-1.4797,-1.4530, 3.0199
09-Sep-2020 11:04:51.109,-0.3386, 0.9755, 0.2595, 0.0518,-0.3967, 0.1456,-1.4623,-1.4547, 3.0409
09-Sep-2020 11:04:51.119,-0.2809, 0.9559, 0.1639,-0.0724,-0.4707, 0.1775,-1.4598,-1.4562, 3.0474
09-Sep-2020 11:04:51.129,-0.2081, 0.9504, 0.0458,-0.1543,-0.6525, 0.2294,-1.4684,-1.4581, 3.0435
09-Sep-2020 11:04:51.138,-0.1656, 0.9486,-0.0023,-0.1959,-0.8271, 0.2070,-1.4861,-1.4605, 3.0324
09-Sep-2020 11:04:51.148,-0.1363, 0.9304,-0.0163,-0.2337,-0.9113, 0.1641,-1.5103,-1.4628, 3.0163
09-Sep-2020 11:04:51.158,-0.1258, 0.9158,-0.0299,-0.2953,-0.9426, 0.1040,-1.5401,-1.4645, 2.9954
09-Sep-2020 11:04:51.168,-0.1209, 0.9112,-0.0462,-0.3783,-0.9746, 0.0231,-1.5769,-1.4657, 2.9680
09-Sep-2020 11:04:51.178,-0.1104, 0.9259,-0.0604,-0.4677,-1.0140,-0.0720,-1.6221,-1.4659, 2.9323
09-Sep-2020 11:04:51.188,-0.1007, 0.9654,-0.0498,-0.5417,-0.9769,-0.1646,-1.6752,-1.4649, 2.8890
09-Sep-2020 11:04:51.198,-0.0871, 1.0238,-0.0435,-0.5927,-0.8352,-0.2512,-1.7322,-1.4626, 2.8415
09-Sep-2020 11:04:51.209,-0.0693, 1.0877,-0.0499,-0.6299,-0.6383,-0.3126,-1.7884,-1.4591, 2.7933
09-Sep-2020 11:04:51.218,-0.0502, 1.1317,-0.0577,-0.6684,-0.4315,-0.3562,-1.8412,-1.4547, 2.7466
09-Sep-2020 11:04:51.229,-0.0329, 1.1584,-0.0604,-0.6879,-0.2106,-0.3881,-1.8901,-1.4494, 2.7018
09-Sep-2020 11:04:51.238,-0.0122, 1.1593,-0.0653,-0.6561, 0.0319,-0.4121,-1.9332,-1.4436, 2.6604
09-Sep-2020 11:04:51.248, 0.0080, 1.1290,-0.0740,-0.5482, 0.2520,-0.4169,-1.9671,-1.4375, 2.6259
09-Sep-2020 11:04:51.258, 0.0157, 1.0794,-0.0928,-0.3834, 0.4092,-0.4175,-1.9888,-1.4316, 2.6016
09-Sep-2020 11:04:51.268, 0.0252, 1.0205,-0.1171,-0.1999, 0.4508,-0.3828,-1.9973,-1.4264, 2.5891
09-Sep-2020 11:04:51.278, 0.0221, 0.9793,-0.1457,-0.0220, 0.3503,-0.2991,-1.9947,-1.4222, 2.5873
09-Sep-2020 11:04:51.288, 0.0061, 0.9476,-0.1653, 0.1479, 0.1450,-0.2167,-1.9846,-1.4195, 2.5941
09-Sep-2020 11:04:51.298,-0.0119, 0.9171,-0.1660, 0.3169,-0.1064,-0.1444,-1.9687,-1.4181, 2.6088
09-Sep-2020 11:04:51.308,-0.0343, 0.9047,-0.1547, 0.5245,-0.2934,-0.0770,-1.9470,-1.4181, 2.6318
09-Sep-2020 11:04:51.318,-0.0274, 0.9031,-0.1109, 0.7298,-0.3553,-0.0106,-1.9162,-1.4193, 2.6659
09-Sep-2020 11:04:51.327,-0.0231, 0.9115,-0.0748, 0.8966,-0.2984, 0.0607,-1.8742,-1.4216, 2.7119
09-Sep-2020 11:04:51.337,-0.0316, 0.9294,-0.0595, 1.0328,-0.1898, 0.0873,-1.8206,-1.4247, 2.7691
09-Sep-2020 11:04:51.348,-0.0303, 0.9492,-0.0306, 1.1293,-0.0406, 0.0740,-1.7548,-1.4278, 2.8376
09-Sep-2020 11:04:51.357,-0.0353, 0.9726, 0.0134, 1.1601, 0.1101, 0.0131,-1.6782,-1.4302, 2.9154
09-Sep-2020 11:04:51.367,-0.0188, 0.9599, 0.2754, 1.0596, 0.2383,-0.0545,-1.5956,-1.4312, 2.9978
09-Sep-2020 11:04:51.377,-0.0337, 0.9873, 0.7194, 0.5188, 0.6322,-0.1859,-1.5205,-1.4305, 3.0711
09-Sep-2020 11:04:51.387, 0.0174, 1.0573, 0.5983,-0.0756, 0.8331,-0.3260,-1.4792,-1.4284, 3.1066
09-Sep-2020 11:04:51.398, 0.0854, 1.0588, 0.2143,-0.3042, 0.5969,-0.4145,-1.4764,-1.4253, 3.1014
09-Sep-2020 11:04:51.407, 0.1343, 1.0437,-0.0266,-0.2724, 0.0793,-0.4119,-1.4919,-1.4216, 3.0798
09-Sep-2020 11:04:51.417, 0.1430, 1.0303,-0.0995,-0.1688,-0.4065,-0.3476,-1.5102,-1.4178, 3.0606
09-Sep-2020 11:04:51.427, 0.1244, 1.0015,-0.0690,-0.0712,-0.6173,-0.3083,-1.5257,-1.4145, 3.0488
09-Sep-2020 11:04:51.438, 0.1136, 0.9754,-0.0078, 0.0137,-0.5091,-0.2950,-1.5367,-1.4115, 3.0438
09-Sep-2020 11:04:51.447, 0.0845, 0.9645, 0.0227, 0.0936,-0.1610,-0.3206,-1.5411,-1.4086, 3.0443
09-Sep-2020 11:04:51.457, 0.0592, 0.9678, 0.0162, 0.1678, 0.2071,-0.3779,-1.5375,-1.4054, 3.0497
09-Sep-2020 11:04:51.467, 0.0468, 0.9846,-0.0110, 0.2474, 0.4882,-0.4194,-1.5262,-1.4017, 3.0592
09-Sep-2020 11:04:51.477, 0.0456, 1.0010,-0.0317, 0.3306, 0.6758,-0.4293,-1.5082,-1.3975, 3.0726
09-Sep-2020 11:04:51.487, 0.0437, 1.0077,-0.0333, 0.4097, 0.7734,-0.4070,-1.4846,-1.3931, 3.0898
09-Sep-2020 11:04:51.497, 0.0268, 1.0031,-0.0122, 0.4616, 0.8076,-0.3866,-1.4568,-1.3887, 3.1104
09-Sep-2020 11:04:51.507,-0.0029, 0.9884, 0.0260, 0.4867, 0.8120,-0.3870,-1.4268,-1.3843, 3.1327
09-Sep-2020 11:04:51.517,-0.0372, 0.9741, 0.0691, 0.4972, 0.8330,-0.4039,-1.3967,-1.3798,-3.1280
09-Sep-2020 11:04:51.526,-0.0767, 0.9690, 0.0898, 0.4686, 0.8631,-0.4373,-1.3673,-1.3750,-3.1065
09-Sep-2020 11:04:51.537,-0.1056, 0.9722, 0.0751, 0.4285, 0.8901,-0.4953,-1.3406,-1.3698,-3.0879
09-Sep-2020 11:04:51.546,-0.1048, 0.9791, 0.0370, 0.4011, 0.8925,-0.5334,-1.3172,-1.3641,-3.0730
09-Sep-2020 11:04:51.556,-0.0955, 0.9977,-0.0021, 0.3882, 0.8392,-0.5234,-1.2965,-1.3580,-3.0608
09-Sep-2020 11:04:51.566,-0.1018, 1.0388,-0.0272, 0.3916, 0.7218,-0.4971,-1.2776,-1.3520,-3.0500
09-Sep-2020 11:04:51.576,-0.1137, 1.0832,-0.0321, 0.3878, 0.5726,-0.4714,-1.2602,-1.3461,-3.0395
09-Sep-2020 11:04:51.586,-0.1295, 1.1333,-0.0208, 0.3759, 0.4149,-0.4649,-1.2448,-1.3405,-3.0294
09-Sep-2020 11:04:51.596,-0.1457, 1.1818, 0.0187, 0.3463, 0.2843,-0.4729,-1.2320,-1.3350,-3.0204
09-Sep-2020 11:04:51.606,-0.1482, 1.2192, 0.0894, 0.3082, 0.1896,-0.4795,-1.2222,-1.3294,-3.0132
09-Sep-2020 11:04:51.616,-0.1227, 1.2459, 0.1655, 0.2427, 0.0920,-0.4821,-1.2152,-1.3239,-3.0079
09-Sep-2020 11:04:51.626,-0.0677, 1.2547, 0.2074, 0.1175,-0.0741,-0.4709,-1.2119,-1.3187,-3.0054
09-Sep-2020 11:04:51.636,-0.0106, 1.2482, 0.2105,-0.0498,-0.3497,-0.4610,-1.2147,-1.3140,-3.0074
09-Sep-2020 11:04:51.646, 0.0448, 1.2346, 0.1925,-0.2004,-0.6291,-0.4530,-1.2257,-1.3099,-3.0152
09-Sep-2020 11:04:51.656, 0.1154, 1.2224, 0.1595,-0.2795,-0.9134,-0.4213,-1.2441,-1.3063,-3.0277
09-Sep-2020 11:04:51.666, 0.1885, 1.2114, 0.1360,-0.3282,-1.1557,-0.3417,-1.2673,-1.3033,-3.0423
09-Sep-2020 11:04:51.676, 0.2604, 1.1938, 0.1226,-0.4152,-1.3201,-0.2157,-1.2936,-1.3011,-3.0576
09-Sep-2020 11:04:51.686, 0.3376, 1.1794, 0.0951,-0.5504,-1.4051,-0.0362,-1.3230,-1.3002,-3.0745
09-Sep-2020 11:04:51.696, 0.4231, 1.1841, 0.0433,-0.7288,-1.3947, 0.2250,-1.3563,-1.3012,-3.0946
09-Sep-2020 11:04:51.706, 0.4973, 1.2198,-0.0131,-0.8917,-1.2701, 0.5529,-1.3942,-1.3049,-3.1195
09-Sep-2020 11:04:51.716, 0.5732, 1.2561,-0.0325,-0.9714,-1.0008, 0.9433,-1.4358,-1.3118, 3.1336
09-Sep-2020 11:04:51.726, 0.6499, 1.2483, 0.0117,-0.9177,-0.5752, 1.3922,-1.4781,-1.3224, 3.1001
09-Sep-2020 11:04:51.736, 0.7017, 1.1806, 0.1583,-0.7758, 0.0704, 1.8574,-1.5162,-1.3369, 3.0667
09-Sep-2020 11:04:51.746, 0.6889, 1.0728, 0.3663,-0.7973, 0.7915, 2.3013,-1.5464,-1.3558, 3.0349
09-Sep-2020 11:04:51.756, 0.5852, 0.9822, 0.5452,-1.0342, 1.3590, 2.6115,-1.5766,-1.3788, 2.9962
09-Sep-2020 11:04:51.766, 0.4434, 0.9196, 0.5101,-1.3321, 1.6630, 2.7062,-1.6244,-1.4044, 2.9341
09-Sep-2020 11:04:51.775, 0.3257, 0.8981, 0.2703,-1.5162, 1.6788, 2.6320,-1.7093,-1.4299, 2.8316
09-Sep-2020 11:04:51.785, 0.2473, 0.9139, 0.0689,-1.5689, 1.4579, 2.4785,-1.8468,-1.4526, 2.6763
09-Sep-2020 11:04:51.795, 0.1490, 0.9384,-0.0253,-1.5743, 1.1084, 2.2406,-2.0468,-1.4699, 2.4606
09-Sep-2020 11:04:51.805, 0.0638, 0.9540,-0.1160,-1.5554, 0.6086, 1.9105,-2.3015,-1.4795, 2.1938
09-Sep-2020 11:04:51.816, 0.0093, 0.9675,-0.1940,-1.4694,-0.0056, 1.5903,-2.5655,-1.4803, 1.9227
09-Sep-2020 11:04:51.825,-0.0404, 1.0402,-0.2235,-1.3077,-0.5240, 1.2603,-2.7871,-1.4744, 1.7002
09-Sep-2020 11:04:51.835,-0.0766, 1.1588,-0.2588,-1.0447,-0.8149, 0.9040,-2.9466,-1.4654, 1.5450
09-Sep-2020 11:04:51.845,-0.1372, 1.2956,-0.2738,-0.7346,-1.0961, 0.4927,-3.0493,-1.4564, 1.4499
09-Sep-2020 11:04:51.855,-0.2460, 1.4386,-0.2309,-0.4633,-1.4006,-0.0476,-3.1053,-1.4495, 1.4045
09-Sep-2020 11:04:51.865,-0.2987, 1.4794, 0.0251,-0.4187,-1.6452,-0.6281,-3.1169,-1.4447, 1.4068
09-Sep-2020 11:04:51.875,-0.3093, 1.4404, 0.3270,-0.7178,-1.7869,-1.1222,-3.0871,-1.4401, 1.4534
09-Sep-2020 11:04:51.885,-0.3351, 1.4001, 0.5524,-1.1060,-1.5056,-1.4582,-3.0280,-1.4321, 1.5306
09-Sep-2020 11:04:51.895,-0.3144, 1.3449, 0.3587,-1.0895,-1.0885,-1.5136,-2.9571,-1.4194, 1.6173
09-Sep-2020 11:04:51.905,-0.2566, 1.2836, 0.2154,-0.6565,-0.7127,-1.1080,-2.8922,-1.4060, 1.6940
09-Sep-2020 11:04:51.915,-0.3067, 1.2236, 0.1451,-0.2957,-0.5549,-0.4668,-2.8488,-1.3968, 1.7453
09-Sep-2020 11:04:51.925,-0.3855, 1.1342, 0.0033,-0.1241,-0.8421, 0.1334,-2.8350,-1.3925, 1.7652
09-Sep-2020 11:04:51.935,-0.3939, 1.0144,-0.1110,-0.0267,-1.5233, 0.6300,-2.8528,-1.3917, 1.7559
09-Sep-2020 11:04:51.945,-0.3415, 0.9193,-0.1461, 0.1346,-2.1799, 1.0560,-2.9020,-1.3932, 1.7214
09-Sep-2020 11:04:51.954,-0.2592, 0.8750,-0.0415, 0.4353,-2.2434, 1.4347,-2.9800,-1.3968, 1.6638
09-Sep-2020 11:04:51.964,-0.1636, 0.8662, 0.1153, 0.7065,-1.6199, 1.7020,-3.0812,-1.4026, 1.5832
09-Sep-2020 11:04:51.974,-0.0171, 0.8467, 0.0856, 0.8909,-1.2288, 1.9440, 3.0833,-1.4097, 1.4795
09-Sep-2020 11:04:51.984, 0.0940, 0.8455, 0.1817, 0.9418,-1.1261, 2.2523, 2.9423,-1.4159, 1.3493
09-Sep-2020 11:04:51.995, 0.0009, 0.9107, 0.2299, 0.8526,-1.1609, 2.3941, 2.7751,-1.4186, 1.1915
09-Sep-2020 11:04:52.004,-0.1149, 0.9487, 0.1956, 0.7422,-1.1422, 2.2874, 2.6014,-1.4159, 1.0274
09-Sep-2020 11:04:52.014,-0.1545, 0.9491, 0.1437, 0.6630,-0.9038, 2.0926, 2.4469,-1.4087, 0.8823
09-Sep-2020 11:04:52.024,-0.1398, 0.9391, 0.1453, 0.6292,-0.4417, 1.9201, 2.3204,-1.3992, 0.7631
09-Sep-2020 11:04:52.034,-0.1127, 0.8969, 0.2088, 0.4653, 0.4615, 1.8356, 2.2205,-1.3884, 0.6658
09-Sep-2020 11:04:52.044,-0.1221, 0.8573, 0.1372, 0.1633, 1.3285, 1.7319, 2.1502,-1.3761, 0.5895
09-Sep-2020 11:04:52.054,-0.1206, 0.8039, 0.0711,-0.2226, 1.8972, 1.6319, 2.1117,-1.3622, 0.5369
09-Sep-2020 11:04:52.064,-0.1386, 0.7218,-0.0194,-0.5800, 2.1431, 1.5732, 2.1009,-1.3471, 0.5067
09-Sep-2020 11:04:52.074,-0.1721, 0.6689,-0.0896,-0.8754, 2.1277, 1.6347, 2.1088,-1.3305, 0.4931
09-Sep-2020 11:04:52.084,-0.2325, 0.6215,-0.1247,-0.9528, 1.7666, 1.6779, 2.1249,-1.3121, 0.4882
09-Sep-2020 11:04:52.094,-0.2774, 0.5551,-0.0525,-0.9313, 1.4711, 1.6385, 2.1391,-1.2930, 0.4846
09-Sep-2020 11:04:52.104,-0.2833, 0.5122, 0.0266,-0.8147, 1.3443, 1.4316, 2.1500,-1.2743, 0.4806
09-Sep-2020 11:04:52.114,-0.2434, 0.4978, 0.1019,-0.6273, 1.3461, 1.0548, 2.1599,-1.2581, 0.4768
09-Sep-2020 11:04:52.124,-0.1611, 0.4684, 0.1039,-0.3622, 1.2669, 0.6033, 2.1708,-1.2459, 0.4743
09-Sep-2020 11:04:52.134,-0.0640, 0.4482, 0.0719,-0.0390, 1.0366, 0.1807, 2.1816,-1.2389, 0.4725
09-Sep-2020 11:04:52.144, 0.0120, 0.4199, 0.1088, 0.2367, 0.7728,-0.2022, 2.1896,-1.2371, 0.4702
09-Sep-2020 11:04:52.154, 0.0469, 0.3924, 0.1824, 0.5010, 0.6150,-0.5401, 2.1950,-1.2401, 0.4677
09-Sep-2020 11:04:52.164, 0.0729, 0.3716, 0.2830, 0.8250, 0.6736,-0.8446, 2.1983,-1.2473, 0.4645
09-Sep-2020 11:04:52.173, 0.1223, 0.4145, 0.4162, 0.9855, 0.8375,-1.0582, 2.1998,-1.2588, 0.4590
09-Sep-2020 11:04:52.184, 0.2143, 0.4964, 0.6240, 0.7625, 0.9953,-1.1450, 2.2029,-1.2729, 0.4535
09-Sep-2020 11:04:52.193, 0.3965, 0.6985, 1.0258,-0.0726, 1.3643,-0.9923, 2.2158,-1.2862, 0.4566
09-Sep-2020 11:04:52.203, 0.7565, 1.0894, 1.2763,-1.4292, 2.4407,-0.5446, 2.2536,-1.2931, 0.4811
09-Sep-2020 11:04:52.214, 1.2111, 1.4897, 0.4248,-2.1654, 3.1950, 0.5047, 2.3247,-1.2877, 0.5302
09-Sep-2020 11:04:52.224, 1.1466, 1.7968,-0.6967,-1.3446, 3.0688, 1.4498, 2.3923,-1.2697, 0.5681
09-Sep-2020 11:04:52.233, 1.0033, 1.8030,-1.0605, 0.4002, 1.6357, 1.9307, 2.4157,-1.2508, 0.5616
09-Sep-2020 11:04:52.243, 0.9422, 1.6295,-0.5858, 1.5345, 0.0442, 2.2181, 2.3829,-1.2405, 0.5098
09-Sep-2020 11:04:52.253, 0.7102, 1.6047,-0.0314, 1.8176,-1.0541, 2.2541, 2.3084,-1.2351, 0.4303
09-Sep-2020 11:04:52.263, 0.3442, 1.7742, 0.4296, 1.5081,-1.0069, 1.7063, 2.2202,-1.2295, 0.3467
09-Sep-2020 11:04:52.273, 0.0443, 2.1180, 0.4491, 1.2107,-2.2252, 0.6251, 2.1478,-1.2245, 0.2816
09-Sep-2020 11:04:52.283,-0.3737, 2.4963, 1.2669, 0.7568,-3.6114,-0.8796, 2.0884,-1.2257, 0.2421
09-Sep-2020 11:04:52.295,-0.4730, 2.4109, 1.1031, 0.1378,-3.7590,-2.3192, 2.0465,-1.2369, 0.2349
09-Sep-2020 11:04:52.304,-0.2229, 1.7132, 0.3723,-0.1700,-2.9288,-3.0827, 2.0358,-1.2577, 0.2624
09-Sep-2020 11:04:52.313,-0.1308, 1.1253, 0.1629,-0.5133,-1.7598,-3.2522, 2.0565,-1.2839, 0.3143
09-Sep-2020 11:04:52.323,-0.0280, 0.7212, 0.0239,-0.7875,-0.7914,-3.0611, 2.1104,-1.3094, 0.3886
09-Sep-2020 11:04:52.333, 0.1017, 0.4194,-0.0435,-0.8949, 0.0535,-2.4842, 2.1919,-1.3305, 0.4811
09-Sep-2020 11:04:52.343, 0.0744, 0.2917,-0.0806,-0.8811, 1.1403,-1.8491, 2.2860,-1.3444, 0.5770
09-Sep-2020 11:04:52.353, 0.0708, 0.2364,-0.1521,-0.7598, 2.0882,-1.2982, 2.3809,-1.3517, 0.6627
09-Sep-2020 11:04:52.363, 0.1307, 0.2378,-0.1504,-0.6324, 2.9750,-0.8307, 2.4680,-1.3545, 0.7307
09-Sep-2020 11:04:52.372, 0.1703, 0.3185,-0.1458,-0.5333, 3.8093,-0.3689, 2.5444,-1.3543, 0.7786
09-Sep-2020 11:04:52.382, 0.1488, 0.4777,-0.1553,-0.5235, 4.5717,-0.0265, 2.6092,-1.3518, 0.8062
09-Sep-2020 11:04:52.392, 0.1244, 0.6582,-0.2290,-0.5036, 4.9764, 0.1685, 2.6665,-1.3474, 0.8186
09-Sep-2020 11:04:52.403, 0.1062, 0.8725,-0.2738,-0.4684, 5.1195, 0.2354, 2.7188,-1.3422, 0.8215
09-Sep-2020 11:04:52.413, 0.0766, 1.1032,-0.3333,-0.3986, 4.9630, 0.1822, 2.7679,-1.3371, 0.8199
09-Sep-2020 11:04:52.422, 0.0358, 1.2928,-0.3235,-0.3377, 4.7161,-0.0344, 2.8159,-1.3328, 0.8185
09-Sep-2020 11:04:52.432, 0.0412, 1.3669,-0.3423,-0.2474, 4.2510,-0.3708, 2.8681,-1.3297, 0.8241
09-Sep-2020 11:04:52.442, 0.0471, 1.3293,-0.2865,-0.0930, 3.7061,-0.7120, 2.9269,-1.3282, 0.8411
09-Sep-2020 11:04:52.452, 0.0401, 1.1884,-0.1735, 0.0807, 3.3552,-0.9667, 2.9922,-1.3286, 0.8703
09-Sep-2020 11:04:52.462, 0.0592, 0.9937,-0.2265, 0.3319, 3.0366,-1.1144, 3.0635,-1.3305, 0.9093
09-Sep-2020 11:04:52.472, 0.1277, 0.8415,-0.3172, 0.6381, 2.3408,-1.1014, 3.1377,-1.3343, 0.9549
09-Sep-2020 11:04:52.482, 0.1802, 0.7623,-0.2701, 0.9384, 1.6503,-0.9386,-3.0760,-1.3404, 1.0024
09-Sep-2020 11:04:52.492, 0.1864, 0.6993,-0.1657, 1.1480, 1.1949,-0.6946,-3.0156,-1.3488, 1.0473
09-Sep-2020 11:04:52.502, 0.1621, 0.6580,-0.0952, 1.2550, 0.8760,-0.4529,-2.9651,-1.3590, 1.0868
09-Sep-2020 11:04:52.512, 0.1096, 0.6777,-0.0623, 1.3247, 0.6408,-0.2516,-2.9237,-1.3704, 1.1201
09-Sep-2020 11:04:52.522, 0.0685, 0.7532,-0.0803, 1.5534, 0.3440,-0.0984,-2.8895,-1.3828, 1.1487
09-Sep-2020 11:04:52.532, 0.0040, 0.8749,-0.0450, 2.0891, 0.1493, 0.0258,-2.8582,-1.3977, 1.1768
09-Sep-2020 11:04:52.542,-0.0634, 1.0053,-0.0246, 2.5525, 0.0361, 0.0229,-2.8205,-1.4176, 1.2136
09-Sep-2020 11:04:52.551,-0.1710, 1.0607, 0.2034, 2.6067,-0.3857,-0.1527,-2.7608,-1.4414, 1.2738
09-Sep-2020 11:04:52.562,-0.4218, 1.0980, 0.8456, 1.9118,-0.2391,-0.6257,-2.6623,-1.4639, 1.3762
09-Sep-2020 11:04:52.571,-0.4719, 1.1013, 0.7272, 0.9036,-0.3723,-1.2434,-2.5139,-1.4767, 1.5281
09-Sep-2020 11:04:52.581,-0.2888, 1.0491, 0.4264, 0.2583,-0.3700,-1.5529,-2.3565,-1.4759, 1.6898
09-Sep-2020 11:04:52.591,-0.1624, 1.0422, 0.1947, 0.0990, 0.2463,-1.5332,-2.2370,-1.4664, 1.8132
09-Sep-2020 11:04:52.601, 0.0270, 1.0278,-0.0407, 0.3038, 0.9893,-1.2059,-2.1462,-1.4549, 1.9020
09-Sep-2020 11:04:52.611, 0.1106, 0.9958,-0.1615, 0.5628, 1.6179,-0.7237,-2.0644,-1.4463, 1.9746
09-Sep-2020 11:04:52.621, 0.0472, 0.9761,-0.2177, 0.7219, 1.8572,-0.4603,-1.9840,-1.4422, 2.0396
09-Sep-2020 11:04:52.632, 0.0092, 0.9618,-0.2286, 0.7745, 1.7270,-0.4236,-1.9016,-1.4405, 2.1043
09-Sep-2020 11:04:52.641, 0.0104, 0.9548,-0.2018, 0.7741, 1.4789,-0.5164,-1.8193,-1.4387, 2.1700
09-Sep-2020 11:04:52.651, 0.0227, 0.9463,-0.1091, 0.7477, 1.3634,-0.6549,-1.7405,-1.4353, 2.2346
09-Sep-2020 11:04:52.661, 0.0613, 0.9538, 0.0542, 0.6986, 1.5479,-0.7660,-1.6675,-1.4299, 2.2945
09-Sep-2020 11:04:52.671, 0.1404, 1.0042, 0.2430, 0.7713, 1.9057,-0.7669,-1.6001,-1.4229, 2.3469
09-Sep-2020 11:04:52.681, 0.2198, 1.0787, 0.3885, 0.8278, 2.0685,-0.6516,-1.5310,-1.4153, 2.3978
09-Sep-2020 11:04:52.691, 0.2622, 1.1476, 0.4603, 0.5703, 1.8074,-0.4907,-1.4635,-1.4084, 2.4456
09-Sep-2020 11:04:52.701, 0.3030, 1.2014, 0.4297, 0.1978, 1.2813,-0.3170,-1.4158,-1.4029, 2.4758
09-Sep-2020 11:04:52.711, 0.3431, 1.2317, 0.3863,-0.0447, 0.6437,-0.1490,-1.3940,-1.3995, 2.4851
09-Sep-2020 11:04:52.721, 0.3761, 1.2226, 0.4230,-0.1703, 0.0927, 0.0193,-1.3908,-1.3982, 2.4818
09-Sep-2020 11:04:52.731, 0.3954, 1.1908, 0.5328,-0.3312,-0.1961, 0.1856,-1.3989,-1.3987, 2.4725
09-Sep-2020 11:04:52.741, 0.4003, 1.1494, 0.5997,-0.6170,-0.2102, 0.3247,-1.4181,-1.4011, 2.4549
09-Sep-2020 11:04:52.751, 0.4004, 1.1024, 0.5817,-0.9691,-0.0801, 0.4520,-1.4535,-1.4052, 2.4210
09-Sep-2020 11:04:52.761, 0.3998, 1.0529, 0.5184,-1.3366, 0.0500, 0.5613,-1.5101,-1.4106, 2.3644
09-Sep-2020 11:04:52.771, 0.3948, 1.0101, 0.4432,-1.7386, 0.0615, 0.6545,-1.5929,-1.4165, 2.2802
09-Sep-2020 11:04:52.781, 0.4077, 0.9973, 0.3573,-2.2787,-0.0019, 0.7661,-1.7092,-1.4217, 2.1620
09-Sep-2020 11:04:52.790, 0.4584, 1.0805, 0.2090,-2.8654,-0.0909, 0.9514,-1.8695,-1.4244, 2.0000
09-Sep-2020 11:04:52.800, 0.5325, 1.2333, 0.0613,-3.2436,-0.1188, 1.2229,-2.0716,-1.4222, 1.7966
09-Sep-2020 11:04:52.810, 0.5997, 1.3339,-0.0033,-3.3268, 0.0336, 1.5532,-2.2895,-1.4139, 1.5772
09-Sep-2020 11:04:52.821, 0.6425, 1.3199,-0.0064,-3.1210, 0.3543, 1.8937,-2.4939,-1.4003, 1.3696
09-Sep-2020 11:04:52.830, 0.6320, 1.2441, 0.0095,-2.7491, 0.7047, 2.2110,-2.6703,-1.3841, 1.1868
09-Sep-2020 11:04:52.840, 0.5553, 1.2087,-0.0345,-2.3859, 0.9169, 2.4556,-2.8198,-1.3673, 1.0273
09-Sep-2020 11:04:52.850, 0.4136, 1.2440,-0.1656,-2.0915, 0.9399, 2.5209,-2.9486,-1.3505, 0.8864
09-Sep-2020 11:04:52.861, 0.3502, 1.2860,-0.3675,-1.7427, 0.7633, 2.4839,-3.0584,-1.3334, 0.7642
09-Sep-2020 11:04:52.870, 0.2502, 1.3589,-0.4697,-1.2730, 0.6379, 2.3463, 3.1312,-1.3171, 0.6599
09-Sep-2020 11:04:52.880, 0.1366, 1.4438,-0.6024,-0.7245, 0.3903, 2.0386, 3.0525,-1.3033, 0.5719
09-Sep-2020 11:04:52.890, 0.0296, 1.5318,-0.6423,-0.1445,-0.1656, 1.6058, 2.9872,-1.2938, 0.5003
09-Sep-2020 11:04:52.900,-0.0328, 1.6018,-0.5759, 0.3654,-0.6121, 1.1145, 2.9317,-1.2895, 0.4441
09-Sep-2020 11:04:52.911,-0.1072, 1.6190,-0.4629, 0.7586,-0.9933, 0.6209, 2.8851,-1.2904, 0.4019
09-Sep-2020 11:04:52.920,-0.1541, 1.5627,-0.3521, 0.9972,-1.2587, 0.1580, 2.8469,-1.2959, 0.3725
09-Sep-2020 11:04:52.930,-0.1243, 1.4142,-0.3192, 1.1768,-1.3842,-0.1324, 2.8176,-1.3048, 0.3550
09-Sep-2020 11:04:52.940,-0.0435, 1.2561,-0.2960, 1.3491,-1.3340,-0.1084, 2.7931,-1.3162, 0.3437
09-Sep-2020 11:04:52.950, 0.0184, 1.1430,-0.2705, 1.5135,-1.0198, 0.1884, 2.7643,-1.3291, 0.3275
09-Sep-2020 11:04:52.960, 0.1506, 1.0366,-0.2579, 1.6400,-0.5502, 0.7607, 2.7217,-1.3422, 0.2942
09-Sep-2020 11:04:52.970, 0.2445, 0.9823,-0.2292, 1.7175,-0.0830, 1.5828, 2.6536,-1.3535, 0.2299
09-Sep-2020 11:04:52.980, 0.2701, 0.9774,-0.0838, 1.6117, 0.1609, 2.3459, 2.5500,-1.3599, 0.1249
09-Sep-2020 11:04:52.989, 0.2566, 0.9807, 0.2454, 1.0736, 0.1144, 2.7884, 2.4209,-1.3583,-0.0085
09-Sep-2020 11:04:53.000, 0.2045, 1.0644, 0.3198, 0.2375,-0.2191, 2.9534, 2.3000,-1.3462,-0.1334
09-Sep-2020 11:04:53.009, 0.0915, 1.1664, 0.1265,-0.2672,-0.5651, 2.8532, 2.2118,-1.3252,-0.2217
09-Sep-2020 11:04:53.019, 0.0043, 1.2033, 0.1169,-0.2779, 0.0400, 2.5741, 2.1522,-1.3006,-0.2781
09-Sep-2020 11:04:53.029,-0.0039, 1.1351,-0.0813, 0.1439, 1.0216, 2.3044, 2.1125,-1.2775,-0.3200
09-Sep-2020 11:04:53.039,-0.0755, 1.0429,-0.1211, 0.7544, 2.2185, 2.0605, 2.0815,-1.2584,-0.3633
09-Sep-2020 11:04:53.050,-0.1521, 0.9683,-0.1755, 1.2572, 3.1197, 1.8214, 2.0539,-1.2439,-0.4154
09-Sep-2020 11:04:53.059,-0.1979, 0.9185,-0.1338, 1.4016, 3.4581, 1.5876, 2.0290,-1.2332,-0.4743
09-Sep-2020 11:04:53.069,-0.2463, 0.8825,-0.1273, 1.2590, 3.5825, 1.3590, 2.0090,-1.2249,-0.5319
09-Sep-2020 11:04:53.079,-0.2981, 0.8426,-0.2122, 1.0315, 3.4845, 1.1321, 1.9977,-1.2178,-0.5818
09-Sep-2020 11:04:53.089,-0.3634, 0.8021,-0.2288, 0.7705, 3.3724, 0.8886, 1.9946,-1.2117,-0.6220
09-Sep-2020 11:04:53.099,-0.4222, 0.7366,-0.2252, 0.5264, 3.1926, 0.6155, 1.9998,-1.2068,-0.6523
09-Sep-2020 11:04:53.109,-0.4472, 0.6560,-0.2126, 0.3069, 2.9759, 0.3576, 2.0122,-1.2034,-0.6730
09-Sep-2020 11:04:53.119,-0.4672, 0.5870,-0.1639, 0.1428, 2.7543, 0.1072, 2.0304,-1.2015,-0.6852
09-Sep-2020 11:04:53.129,-0.4640, 0.5350,-0.0784, 0.0286, 2.6467,-0.1590, 2.0532,-1.2012,-0.6903
09-Sep-2020 11:04:53.139,-0.4595, 0.4944,-0.0052,-0.0288, 2.6712,-0.4345, 2.0807,-1.2026,-0.6891
09-Sep-2020 11:04:53.149,-0.4453, 0.4520, 0.0226,-0.0453, 2.5129,-0.7532, 2.1132,-1.2062,-0.6826
09-Sep-2020 11:04:53.159,-0.4034, 0.4131, 0.1508,-0.0949, 2.2787,-1.0978, 2.1497,-1.2123,-0.6704
09-Sep-2020 11:04:53.169,-0.3619, 0.4051, 0.3383,-0.1940, 2.2753,-1.4354, 2.1912,-1.2207,-0.6505
09-Sep-2020 11:04:53.178,-0.3048, 0.4516, 0.4590,-0.2768, 2.5221,-1.7734, 2.2421,-1.2309,-0.6207
09-Sep-2020 11:04:53.189,-0.1989, 0.5223, 0.5188,-0.1101, 2.9304,-1.9933, 2.3054,-1.2426,-0.5803
09-Sep-2020 11:04:53.199,-0.0641, 0.6213, 0.5549, 0.1193, 3.1430,-2.0911, 2.3779,-1.2561,-0.5345
09-Sep-2020 11:04:53.209, 0.1019, 0.7225, 0.5781, 0.3309, 3.0163,-2.0912, 2.4552,-1.2707,-0.4860
09-Sep-2020 11:04:53.218, 0.2759, 0.7939, 0.5638, 0.5712, 2.6046,-1.9644, 2.5330,-1.2858,-0.4358
09-Sep-2020 11:04:53.229, 0.4489, 0.8567, 0.5535, 0.7074, 1.9004,-1.6663, 2.6052,-1.3010,-0.3875
09-Sep-2020 11:04:53.238, 0.6164, 0.9577, 0.5674, 0.6394, 0.9436,-1.1703, 2.6646,-1.3151,-0.3454
09-Sep-2020 11:04:53.248, 0.7990, 1.1682, 0.4426, 0.2708,-0.1718,-0.4591, 2.7034,-1.3256,-0.3149
09-Sep-2020 11:04:53.258, 1.0334, 1.4750,-0.1892, 0.2781,-1.0210, 0.6025, 2.7123,-1.3301,-0.3041
09-Sep-2020 11:04:53.268, 1.0652, 1.7046,-0.8039, 0.9549,-1.3065, 1.6945, 2.6743,-1.3304,-0.3332
09-Sep-2020 11:04:53.278, 0.9817, 1.7256,-0.7956, 1.6096,-1.1315, 2.4392, 2.5830,-1.3305,-0.4140
09-Sep-2020 11:04:53.288, 0.7942, 1.6749,-0.5732, 1.8553,-0.8039, 2.7220, 2.4546,-1.3292,-0.5347
09-Sep-2020 11:04:53.298, 0.4732, 1.7393,-0.3991, 1.7615,-0.5187, 2.3523, 2.3179,-1.3242,-0.6673
09-Sep-2020 11:04:53.308, 0.2490, 1.8917,-0.3524, 1.4424,-0.3329, 1.4040, 2.2023,-1.3174,-0.7812
09-Sep-2020 11:04:53.318, 0.0750, 2.1330,-0.2660, 0.9512,-0.4210, 0.0194, 2.1239,-1.3140,-0.8586
09-Sep-2020 11:04:53.328, 0.0584, 2.1530,-0.0955, 0.3273,-0.5665,-1.3885, 2.0883,-1.3187,-0.8911
09-Sep-2020 11:04:53.338, 0.2282, 1.8645, 0.3381,-0.3803,-1.7529,-2.1397, 2.0975,-1.3318,-0.8751
09-Sep-2020 11:04:53.348, 0.2492, 1.3646, 1.3403, 1.3806,-1.8879,-1.8023, 2.1299,-1.3488,-0.8258
09-Sep-2020 11:04:53.358, 0.0837, 1.0113, 1.2450, 1.3012,-2.2917,-1.4954, 2.1063,-1.3704,-0.8305
09-Sep-2020 11:04:53.368,-0.0985, 0.7910, 0.8551, 0.0787,-2.4161,-1.5431, 2.0665,-1.3896,-0.8480
09-Sep-2020 11:04:53.378,-0.1356, 0.6122, 0.4458,-0.8041,-1.3928,-1.6107, 2.0796,-1.4035,-0.8111
09-Sep-2020 11:04:53.388,-0.0585, 0.5315, 0.0018,-1.0927,-0.3951,-1.4996, 2.1551,-1.4132,-0.7202
09-Sep-2020 11:04:53.398, 0.0194, 0.4467, 0.0385,-1.1219, 1.0039,-1.1632, 2.2626,-1.4186,-0.6079
09-Sep-2020 11:04:53.408, 0.0341, 0.3671,-0.0512,-1.0722, 2.2131,-0.8158, 2.3767,-1.4195,-0.5023
09-Sep-2020 11:04:53.418, 0.0166, 0.4059,-0.0831,-1.0203, 3.1425,-0.5466, 2.4836,-1.4168,-0.4164
09-Sep-2020 11:04:53.427, 0.0288, 0.5444,-0.0985,-1.0441, 3.9925,-0.3529, 2.5798,-1.4115,-0.3506
09-Sep-2020 11:04:53.439, 0.0275, 0.7551,-0.1601,-1.1051, 4.5678,-0.2404, 2.6690,-1.4042,-0.3002
09-Sep-2020 11:04:53.447, 0.0214, 0.9955,-0.2039,-1.1485, 4.8692,-0.2219, 2.7532,-1.3953,-0.2607
09-Sep-2020 11:04:53.457,-0.0367, 1.2232,-0.2373,-1.1598, 4.9938,-0.3204, 2.8342,-1.3853,-0.2276
09-Sep-2020 11:04:53.467,-0.1551, 1.3808,-0.3126,-1.0804, 4.8692,-0.6251, 2.9156,-1.3752,-0.1951
09-Sep-2020 11:04:53.477,-0.2258, 1.3768,-0.3942,-0.9117, 4.3749,-1.1012, 3.0038,-1.3658,-0.1544
09-Sep-2020 11:04:53.487,-0.2057, 1.2192,-0.3050,-0.7107, 3.5571,-1.5330, 3.1018,-1.3577,-0.0984
09-Sep-2020 11:04:53.497,-0.1678, 1.0287,-0.2632,-0.4963, 3.3207,-1.8513,-3.0769,-1.3505,-0.0285
09-Sep-2020 11:04:53.507,-0.0690, 0.8533,-0.5258,-0.1467, 1.9746,-1.9809,-2.9680,-1.3436, 0.0503
09-Sep-2020 11:04:53.517,-0.0056, 0.6925,-0.4128, 0.1743, 0.6462,-1.9112,-2.8685,-1.3378, 0.1323
09-Sep-2020 11:04:53.527, 0.0119, 0.5973,-0.3547, 0.4338,-0.4365,-1.7197,-2.7847,-1.3336, 0.2118
09-Sep-2020 11:04:53.537,-0.0268, 0.5922,-0.3279, 0.6875,-1.2493,-1.4890,-2.7172,-1.3311, 0.2855
09-Sep-2020 11:04:53.547,-0.1235, 0.6365,-0.2813, 0.9343,-1.7546,-1.2898,-2.6629,-1.3309, 0.3541
09-Sep-2020 11:04:53.557,-0.2079, 0.6985,-0.1997, 1.1440,-1.9403,-1.1591,-2.6156,-1.3329, 0.4205
09-Sep-2020 11:04:53.567,-0.2090, 0.7527,-0.0872, 1.2981,-1.7984,-0.9830,-2.5695,-1.3367, 0.4876
09-Sep-2020 11:04:53.577,-0.2136, 0.8267, 0.0677, 1.4749,-1.1675,-0.6987,-2.5225,-1.3420, 0.5541
09-Sep-2020 11:04:53.587,-0.2545, 0.9411, 0.0720, 2.0706, 0.1726,-0.4304,-2.4699,-1.3498, 0.6193
09-Sep-2020 11:04:53.597,-0.2558, 1.0487,-0.0858, 2.9020, 1.3234,-0.2918,-2.3911,-1.3628, 0.6983
09-Sep-2020 11:04:53.607,-0.3221, 1.1181,-0.1604, 3.4232, 1.9879,-0.3695,-2.2649,-1.3805, 0.8141
09-Sep-2020 11:04:53.617,-0.3360, 1.1261,-0.0559, 3.5556, 2.5795,-0.5719,-2.0821,-1.3967, 0.9797
09-Sep-2020 11:04:53.626,-0.2508, 1.1031, 0.2896, 3.2305, 3.1947,-0.7277,-1.8546,-1.4052, 1.1845
09-Sep-2020 11:04:53.637,-0.2248, 1.0757, 1.3507, 2.2410, 4.2841,-0.8196,-1.6280,-1.4036, 1.3817
09-Sep-2020 11:04:53.647,-0.2376, 1.1949, 1.7375, 0.4797, 5.4664,-1.0275,-1.4614,-1.3950, 1.5073
09-Sep-2020 11:04:53.656,-0.1840, 1.2287, 0.5629,-0.2692, 5.2165,-1.3039,-1.3859,-1.3841, 1.5295
09-Sep-2020 11:04:53.666,-0.0180, 1.1633,-0.2948,-0.0407, 3.3732,-1.4166,-1.3583,-1.3720, 1.5058
09-Sep-2020 11:04:53.676, 0.1639, 1.0444,-0.6341, 0.4656, 0.7462,-1.1560,-1.3409,-1.3586, 1.4899
09-Sep-2020 11:04:53.687, 0.1820, 0.9775,-0.4419, 0.7505,-1.2661,-0.7519,-1.3254,-1.3465, 1.4978
09-Sep-2020 11:04:53.696, 0.1203, 0.9728,-0.1354, 0.7694,-2.0670,-0.4759,-1.3148,-1.3374, 1.5208
09-Sep-2020 11:04:53.706, 0.0684, 1.0081, 0.0694, 0.6799,-1.9659,-0.3714,-1.3094,-1.3308, 1.5470
09-Sep-2020 11:04:53.716, 0.0503, 1.0619, 0.2389, 0.6478,-1.2307,-0.3924,-1.3057,-1.3255, 1.5705
09-Sep-2020 11:04:53.726, 0.0762, 1.1070, 0.3535, 0.6403,-0.1687,-0.4589,-1.2970,-1.3200, 1.5919
